Digit_temp	id	light	timestamp	acc_z	acc_y	acc_x	motion	pressure	humid
86.54	23341ca4e4830bee	63488	1249974	8576	30432	30288	0	101021	35328
86.54	23341ca4e4830bee	63488	1250172	8576	30432	30288	0	101025	35328
86.54	23341ca4e4830bee	63488	1250363	8576	30432	30288	0	101015	35328
86.54	23341ca4e4830bee	63488	1250554	8576	30432	30288	0	101021	35328
86.54	23341ca4e4830bee	63488	1250745	8576	30448	30288	0	101015	35232
86.54	23341ca4e4830bee	63488	1250936	8576	30448	30288	0	101021	35232
86.54	23341ca4e4830bee	63488	1251127	8576	30448	30288	0	101025	35232
86.54	23341ca4e4830bee	63488	1251318	8576	30448	30288	0	101023	35232
86.54	23341ca4e4830bee	63488	1251509	8576	30400	30272	0	101025	35136
86.54	23341ca4e4830bee	63488	1251707	8576	30400	30272	0	101025	35136
86.54	23341ca4e4830bee	63488	1251898	8576	30400	30272	0	101021	35136
86.54	23341ca4e4830bee	63488	1252089	8576	30464	30272	0	101025	35120
86.54	23341ca4e4830bee	63488	1252280	8576	30464	30304	0	101019	35120
86.54	23341ca4e4830bee	63488	1252471	8576	30464	30304	0	101021	35120
86.54	23341ca4e4830bee	63488	1252652	8576	30464	30304	0	101015	35120
86.54	23341ca4e4830bee	63488	1252843	8576	30448	30320	0	101027	35120
86.54	23341ca4e4830bee	63488	1253034	8576	30448	30320	0	101027	35120
86.54	23341ca4e4830bee	63488	1253225	8576	30448	30320	0	101015	35120
86.54	23341ca4e4830bee	63488	1253421	8576	30448	30320	0	101025	35120
86.54	23341ca4e4830bee	63488	1253602	8576	30416	30272	0	101015	35008
86.54	23341ca4e4830bee	63488	1253835	8576	30416	30272	0	101023	35008
86.54	23341ca4e4830bee	63488	1254026	8576	30416	30272	0	101025	35008
86.54	23341ca4e4830bee	63488	1254217	8576	30416	30272	0	101021	35008
86.54	23341ca4e4830bee	63488	1254408	8576	30448	30304	0	101021	35008
86.54	23341ca4e4830bee	63488	1254599	8576	30448	30304	0	101015	35008
86.54	23341ca4e4830bee	63488	1254790	8576	30448	30304	0	101021	35008
86.54	23341ca4e4830bee	63488	1254981	8576	30432	30304	0	101021	35344
86.54	23341ca4e4830bee	63488	1255162	8576	30432	30272	0	101019	35344
86.54	23341ca4e4830bee	63488	1255353	8576	30432	30272	0	101027	35344
86.54	23341ca4e4830bee	63488	1255544	8576	30432	30272	0	101019	35344
86.54	23341ca4e4830bee	63488	1255735	8576	30464	30304	0	101019	35152
86.54	23341ca4e4830bee	63488	1255926	8576	30464	30304	0	101019	35152
86.54	23341ca4e4830bee	63488	1256118	8576	30464	30304	0	101023	35152
86.54	23341ca4e4830bee	63488	1256309	8576	30464	30304	0	101025	35152
86.54	23341ca4e4830bee	63488	1256500	8576	30416	30320	0	101019	35040
86.54	23341ca4e4830bee	63488	1256682	8576	30416	30320	0	101025	35040
86.54	23341ca4e4830bee	63488	1256873	8576	30416	30320	0	101021	35040
86.54	23341ca4e4830bee	63488	1257064	8576	30416	30320	0	101013	35040
86.54	23341ca4e4830bee	63488	1257255	8576	30432	30320	0	101019	34928
86.54	23341ca4e4830bee	63488	1257447	8576	30432	30320	0	101019	34928
86.54	23341ca4e4830bee	63488	1257703	8576	30432	30320	0	101019	34928
86.54	23341ca4e4830bee	63488	1257894	8576	30416	30320	0	101013	35072
86.54	23341ca4e4830bee	63488	1258085	8576	30416	30320	0	101025	35072
86.54	23341ca4e4830bee	63488	1258276	8576	30416	30320	0	101019	35072
86.54	23341ca4e4830bee	63488	1258467	8576	30416	30320	0	101029	35072
86.54	23341ca4e4830bee	63488	1258670	8576	30416	30288	0	101019	35264
86.54	23341ca4e4830bee	63488	1258861	8576	30416	30288	0	101019	35264
86.54	23341ca4e4830bee	63488	1259052	8576	30416	30288	0	101019	35264
86.54	23341ca4e4830bee	63488	1259243	8576	30416	30288	0	101019	35264
86.54	23341ca4e4830bee	63488	1259434	8576	30416	30288	0	101023	34992
86.54	23341ca4e4830bee	63488	1259625	8576	30416	30288	0	101025	34992
86.54	23341ca4e4830bee	63488	1259816	8576	30416	30288	0	101013	34992
86.54	23341ca4e4830bee	63488	1260007	8576	30416	30288	0	101017	35152
86.54	23341ca4e4830bee	63488	1260199	8576	30448	30336	0	101019	35152
86.54	23341ca4e4830bee	63488	1260390	8576	30448	30336	0	101023	35152
86.54	23341ca4e4830bee	63488	1260581	8576	30448	30336	0	101029	35152
86.54	23341ca4e4830bee	63488	1260772	8576	30432	30304	0	101023	35232
86.54	23341ca4e4830bee	63488	1260963	8576	30432	30304	0	101023	35232
86.54	23341ca4e4830bee	63488	1261154	8576	30432	30304	0	101023	35232
86.54	23341ca4e4830bee	63488	1261346	8576	30432	30304	0	101013	35232
86.54	23341ca4e4830bee	63488	1261587	8576	30448	30288	0	101011	35136
86.54	23341ca4e4830bee	63488	1261778	8576	30448	30288	0	101023	35136
86.54	23341ca4e4830bee	63488	1261969	8576	30448	30288	0	101033	35136
86.54	23341ca4e4830bee	63488	1262160	8576	30448	30288	0	101017	35136
86.54	23341ca4e4830bee	63488	1262351	8576	30480	30272	0	101017	35008
86.54	23341ca4e4830bee	63488	1262542	8576	30480	30272	0	101035	35008
86.54	23341ca4e4830bee	63488	1262733	8576	30480	30272	0	101023	35008
86.54	23341ca4e4830bee	63488	1262924	8576	30432	30272	0	101015	35296
86.54	23341ca4e4830bee	63488	1263115	8576	30432	30304	0	101023	35296
86.54	23341ca4e4830bee	63488	1263307	8576	30432	30304	0	101017	35296
86.54	23341ca4e4830bee	63488	1263498	8576	30432	30304	0	101027	35296
86.54	23341ca4e4830bee	63488	1263690	8576	30432	30288	0	101023	35136
86.54	23341ca4e4830bee	63488	1263881	8576	30432	30288	0	101021	35136
86.54	23341ca4e4830bee	63488	1264072	8576	30432	30288	0	101033	35136
86.54	23341ca4e4830bee	63488	1264253	8576	30432	30288	0	101027	35136
86.54	23341ca4e4830bee	63488	1264444	8576	30416	30304	0	101019	35312
86.54	23341ca4e4830bee	63488	1264635	8576	30416	30304	0	101029	35312
86.54	23341ca4e4830bee	63488	1264827	8576	30416	30304	0	101023	35312
86.54	23341ca4e4830bee	63488	1265018	8576	30416	30304	0	101027	35312
86.54	23341ca4e4830bee	63488	1265209	8576	30432	30352	0	101017	35328
86.54	23341ca4e4830bee	63488	1265444	8576	30432	30352	0	101013	35328
86.54	23341ca4e4830bee	63488	1265635	8576	30432	30352	0	101017	35328
86.54	23341ca4e4830bee	63488	1265826	8704	30432	30288	0	101021	35168
86.54	23341ca4e4830bee	63488	1266017	8704	30432	30288	0	101017	35168
86.54	23341ca4e4830bee	63488	1266208	8704	30432	30288	0	101017	35168
86.54	23341ca4e4830bee	63488	1266399	8704	30432	30288	0	101023	35168
86.54	23341ca4e4830bee	63488	1266590	8576	30448	30288	0	101021	35328
86.54	23341ca4e4830bee	63488	1266781	8576	30448	30288	0	101023	35328
86.54	23341ca4e4830bee	63488	1266972	8576	30448	30288	0	101027	35328
86.54	23341ca4e4830bee	63488	1267164	8576	30448	30288	0	101017	35328
86.54	23341ca4e4830bee	63488	1267355	8576	30416	30288	0	101017	35296
86.54	23341ca4e4830bee	63488	1267546	8576	30416	30288	0	101017	35296
86.54	23341ca4e4830bee	63488	1267737	8576	30416	30288	0	101017	35296
86.54	23341ca4e4830bee	63488	1267928	8576	30416	30288	0	101027	35296
86.54	23341ca4e4830bee	63488	1268119	8576	30432	30336	0	101027	35312
86.54	23341ca4e4830bee	63488	1268311	8576	30432	30336	0	101015	35312
86.54	23341ca4e4830bee	63488	1268502	8576	30432	30336	0	101021	35312
86.54	23341ca4e4830bee	63488	1268684	8576	30432	30336	0	101021	35328
86.54	23341ca4e4830bee	63488	1268875	8576	30464	30272	0	101011	35328
86.54	23341ca4e4830bee	63488	1269066	8576	30464	30272	0	101017	35328
86.54	23341ca4e4830bee	63488	1269308	8576	30464	30272	0	101021	35328
86.54	23341ca4e4830bee	63488	1269499	8576	30432	30320	0	101017	35200
86.54	23341ca4e4830bee	63488	1269690	8576	30432	30320	0	101033	35200
86.54	23341ca4e4830bee	63488	1269881	8576	30432	30320	0	101017	35200
86.54	23341ca4e4830bee	63488	1270072	8576	30432	30320	0	101017	35200
86.54	23341ca4e4830bee	63488	1270253	8576	30416	30304	0	101027	35008
86.54	23341ca4e4830bee	63488	1270445	8576	30416	30304	0	101027	35008
86.54	23341ca4e4830bee	63488	1270636	8576	30416	30304	0	101027	35008
86.54	23341ca4e4830bee	63488	1270827	8576	30416	30304	0	101013	35008
86.54	23341ca4e4830bee	63488	1271018	8576	30416	30320	0	101011	35040
86.54	23341ca4e4830bee	63488	1271209	8576	30416	30320	0	101021	35040
86.54	23341ca4e4830bee	63488	1271400	8576	30416	30320	0	101015	35040
86.54	23341ca4e4830bee	63488	1271591	8576	30400	30320	0	101023	35072
86.54	23341ca4e4830bee	63488	1271782	8576	30400	30336	0	101021	35072
86.54	23341ca4e4830bee	63488	1271964	8576	30400	30336	0	101023	35072
86.54	23341ca4e4830bee	63488	1272155	8576	30400	30336	0	101017	35072
86.54	23341ca4e4830bee	63488	1272346	8576	30432	30336	0	101023	34944
86.54	23341ca4e4830bee	63488	1272537	8576	30432	30336	0	101021	34944
86.54	23341ca4e4830bee	63488	1272728	8576	30432	30336	0	101013	34944
86.54	23341ca4e4830bee	63488	1272920	8576	30432	30336	0	101015	34944
86.54	23341ca4e4830bee	63488	1273155	8576	30432	30272	0	101021	35312
86.54	23341ca4e4830bee	63488	1273346	8576	30432	30272	0	101021	35312
86.54	23341ca4e4830bee	63488	1273542	8576	30432	30272	0	101027	35312
86.54	23341ca4e4830bee	63488	1273723	8704	30432	30272	0	101023	35312
86.54	23341ca4e4830bee	63488	1273915	8704	30448	30304	0	101019	35312
86.54	23341ca4e4830bee	63488	1274106	8704	30448	30304	0	101023	35312
86.54	23341ca4e4830bee	63488	1274303	8704	30448	30304	0	101017	35312
86.54	23341ca4e4830bee	63488	1274484	8576	30400	30304	0	101021	35088
86.54	23341ca4e4830bee	63488	1274675	8576	30400	30336	0	101021	35088
86.54	23341ca4e4830bee	63488	1274866	8576	30400	30336	0	101015	35088
86.54	23341ca4e4830bee	63488	1275058	8576	30400	30336	0	101025	35088
86.54	23341ca4e4830bee	63488	1275250	8576	30432	30288	0	101023	35024
86.54	23341ca4e4830bee	63488	1275441	8576	30432	30288	0	101027	35024
86.54	23341ca4e4830bee	63488	1275632	8576	30432	30288	0	101021	35024
86.54	23341ca4e4830bee	63488	1275823	8576	30432	30288	0	101021	35024
86.54	23341ca4e4830bee	63488	1276004	8576	30448	30288	0	101015	35312
86.54	23341ca4e4830bee	63488	1276195	8576	30448	30288	0	101017	35312
86.54	23341ca4e4830bee	63488	1276387	8576	30448	30288	0	101017	35312
86.54	23341ca4e4830bee	63488	1276578	8576	30448	30288	0	101017	35312
86.54	23341ca4e4830bee	63488	1276769	8576	30400	30320	0	101023	35136
86.54	23341ca4e4830bee	63488	1277002	8576	30400	30320	0	101021	35136
86.54	23341ca4e4830bee	63488	1277193	8576	30400	30320	0	101015	35136
86.54	23341ca4e4830bee	63488	1277374	8576	30416	30320	0	101025	35136
86.54	23341ca4e4830bee	63488	1277565	8576	30416	30304	0	101021	35136
86.54	23341ca4e4830bee	63488	1277757	8576	30416	30304	0	101023	35136
86.54	23341ca4e4830bee	63488	1277948	8576	30416	30304	0	101023	35136
86.54	23341ca4e4830bee	63488	1278139	8576	30416	30304	0	101023	35136
86.54	23341ca4e4830bee	63488	1278330	8576	30416	30304	0	101023	35136
86.54	23341ca4e4830bee	63488	1278521	8576	30416	30304	0	101027	35136
86.54	23341ca4e4830bee	63488	1278712	8576	30416	30304	0	101015	35136
86.54	23341ca4e4830bee	63488	1278903	8576	30448	30304	0	101021	35312
86.54	23341ca4e4830bee	63488	1279084	8576	30448	30304	0	101021	35312
86.54	23341ca4e4830bee	63488	1279275	8576	30448	30304	0	101021	35312
86.54	23341ca4e4830bee	63488	1279467	8576	30448	30304	0	101021	35312
86.54	23341ca4e4830bee	63488	1279658	8576	30400	30304	0	101015	35072
86.54	23341ca4e4830bee	63488	1279849	8576	30400	30304	0	101021	35072
86.54	23341ca4e4830bee	63488	1280040	8576	30400	30304	0	101013	35072
86.54	23341ca4e4830bee	63488	1280231	8576	30400	30304	0	101009	35216
86.54	23341ca4e4830bee	63488	1280422	8576	30432	30288	0	101027	35216
86.54	23341ca4e4830bee	63488	1280614	8576	30432	30288	0	101011	35216
86.54	23341ca4e4830bee	63488	1280856	8576	30432	30288	0	101015	35216
86.54	23341ca4e4830bee	63488	1281047	8576	30416	30288	0	101017	35216
86.54	23341ca4e4830bee	63488	1281238	8576	30416	30288	0	101017	35216
86.54	23341ca4e4830bee	63488	1281429	8576	30416	30288	0	101021	35216
86.54	23341ca4e4830bee	63488	1281620	8576	30416	30288	0	101017	35216
86.54	23341ca4e4830bee	63488	1281812	8576	30432	30320	0	101019	35024
86.54	23341ca4e4830bee	63488	1282003	8576	30432	30320	0	101021	35024
86.54	23341ca4e4830bee	63488	1282194	8576	30432	30320	0	101017	35024
86.54	23341ca4e4830bee	63488	1282385	8576	30432	30320	0	101021	35024
86.54	23341ca4e4830bee	63488	1282576	8576	30432	30256	0	101015	35200
86.54	23341ca4e4830bee	63488	1282767	8576	30432	30256	0	101017	35200
86.54	23341ca4e4830bee	63488	1282959	8576	30432	30256	0	101017	35200
86.54	23341ca4e4830bee	63488	1283150	8576	30432	30256	0	101023	35264
86.54	23341ca4e4830bee	63488	1283341	8576	30432	30272	0	101021	35264
86.54	23341ca4e4830bee	63488	1283532	8576	30432	30272	0	101017	35264
86.54	23341ca4e4830bee	63488	1283723	8576	30432	30272	0	101017	35264
86.54	23341ca4e4830bee	63488	1283914	8576	30448	30304	0	101021	35312
86.54	23341ca4e4830bee	63488	1284106	8576	30448	30304	0	101015	35312
86.54	23341ca4e4830bee	63488	1284297	8576	30448	30304	0	101021	35312
86.54	23341ca4e4830bee	63488	1284488	8576	30448	30304	0	101021	35312
86.54	23341ca4e4830bee	63488	1284730	8576	30432	30320	0	101015	35088
86.54	23341ca4e4830bee	63488	1284921	8576	30432	30320	0	101017	35088
86.54	23341ca4e4830bee	63488	1285112	8576	30432	30320	0	101025	35088
86.54	23341ca4e4830bee	63488	1285303	8576	30432	30320	0	101023	35296
86.54	23341ca4e4830bee	63488	1285494	8576	30416	30320	0	101025	35296
86.54	23341ca4e4830bee	63488	1285685	8576	30416	30320	0	101021	35296
86.54	23341ca4e4830bee	63488	1285876	8576	30416	30320	0	101021	35296
86.54	23341ca4e4830bee	63488	1286067	8576	30432	30304	0	101027	35344
86.54	23341ca4e4830bee	63488	1286258	8576	30432	30304	0	101021	35344
86.54	23341ca4e4830bee	63488	1286449	8576	30432	30304	0	101005	35344
86.54	23341ca4e4830bee	63488	1286640	8576	30432	30304	0	101011	35344
86.54	23341ca4e4830bee	63488	1286832	8576	30464	30320	0	101011	35024
86.54	23341ca4e4830bee	63488	1287023	8576	30464	30320	0	101015	35024
86.54	23341ca4e4830bee	63488	1287214	8576	30464	30320	0	101023	35024
86.54	23341ca4e4830bee	63488	1287395	8576	30464	30320	0	101027	35024
86.54	23341ca4e4830bee	63488	1287586	8576	30432	30304	0	101027	35280
86.54	23341ca4e4830bee	63488	1287777	8576	30432	30304	0	101021	35280
86.54	23341ca4e4830bee	63488	1287969	8576	30432	30304	0	101015	35280
86.54	23341ca4e4830bee	63488	1288160	8576	30432	30304	0	101015	35280
86.54	23341ca4e4830bee	63488	1288351	8576	30416	30288	0	101015	35040
86.54	23341ca4e4830bee	63488	1288587	8576	30416	30288	0	101017	35040
86.54	23341ca4e4830bee	63488	1288778	8576	30416	30288	0	101017	35040
86.54	23341ca4e4830bee	63488	1288969	8576	30432	30336	0	101019	34992
86.54	23341ca4e4830bee	63488	1289160	8576	30432	30336	0	101021	34992
86.54	23341ca4e4830bee	63488	1289351	8576	30432	30336	0	101021	34992
86.54	23341ca4e4830bee	63488	1289542	8576	30432	30336	0	101009	34992
86.54	23341ca4e4830bee	63488	1289733	8704	30448	30304	0	101015	35296
86.54	23341ca4e4830bee	63488	1289924	8704	30448	30304	0	101021	35296
86.54	23341ca4e4830bee	63488	1290105	8704	30448	30304	0	101019	35296
86.54	23341ca4e4830bee	63488	1290316	8576	30448	30304	0	101027	35296
86.54	23341ca4e4830bee	63488	1290507	8576	30464	30304	0	101019	35136
86.54	23341ca4e4830bee	63488	1290709	8576	30464	30304	0	101009	35136
86.54	23341ca4e4830bee	63488	1290901	8576	30464	30304	0	101021	35136
86.54	23341ca4e4830bee	63488	1291092	8704	30464	30304	0	101021	35024
86.54	23341ca4e4830bee	63488	1291283	8704	30432	30288	0	101027	35024
86.54	23341ca4e4830bee	63488	1291474	8704	30432	30288	0	101009	35024
86.54	23341ca4e4830bee	63488	1291674	8704	30432	30288	0	101021	35024
86.54	23341ca4e4830bee	63504	1291865	8576	30432	30304	0	101021	35312
86.54	23341ca4e4830bee	63504	1292046	8576	30432	30304	0	101021	35312
86.54	23341ca4e4830bee	63504	1292238	8576	30432	30304	0	101015	35312
86.54	23341ca4e4830bee	63504	1292484	8576	30432	30304	0	101017	35312
86.54	23341ca4e4830bee	63504	1292675	8576	30448	30272	0	101031	34976
86.54	23341ca4e4830bee	63504	1292856	8576	30448	30272	0	101027	34976
86.54	23341ca4e4830bee	63504	1293047	8576	30448	30272	0	101025	34976
86.54	23341ca4e4830bee	63680	1293238	8576	30448	30272	1	101025	35280
86.54	23341ca4e4830bee	63680	1293429	8576	30400	30304	1	101017	35280
86.54	23341ca4e4830bee	63680	1293620	8576	30400	30304	1	101011	35280
86.54	23341ca4e4830bee	63680	1293812	8576	30400	30304	1	101017	35280
86.54	23341ca4e4830bee	62960	1294003	8576	29776	27568	0	101027	35248
86.54	23341ca4e4830bee	62960	1294194	8576	29776	27568	1	101015	35248
86.54	23341ca4e4830bee	62960	1294385	8576	29776	27568	1	101017	35248
86.54	23341ca4e4830bee	62960	1294567	8576	29776	27568	1	101027	35248
86.54	23341ca4e4830bee	63920	1294758	8576	30000	27424	1	101015	35248
86.54	23341ca4e4830bee	63920	1294949	8576	30000	27424	1	101023	35248
86.54	23341ca4e4830bee	63920	1295140	8576	30000	27424	1	101021	35248
86.54	23341ca4e4830bee	63920	1295331	8576	30000	27424	0	101017	35248
86.54	23341ca4e4830bee	63568	1295522	8576	29824	27568	1	101015	35008
86.54	23341ca4e4830bee	63568	1295714	8576	29824	27568	1	101013	35008
86.54	23341ca4e4830bee	63568	1295905	8576	29824	27568	1	101011	35008
86.54	23341ca4e4830bee	63568	1296086	8576	29824	27568	1	101011	35008
86.54	23341ca4e4830bee	64080	1296334	8576	29936	27520	1	101027	35088
86.54	23341ca4e4830bee	64080	1296525	8576	29936	27520	0	101027	35088
86.54	23341ca4e4830bee	64080	1296716	8576	29936	27520	0	101017	35088
86.54	23341ca4e4830bee	64112	1296897	8576	29904	27552	0	101017	35360
86.54	23341ca4e4830bee	64112	1297088	8576	29904	27552	0	101015	35360
86.54	23341ca4e4830bee	64112	1297279	8576	29904	27552	0	101021	35360
86.54	23341ca4e4830bee	64112	1297470	8576	29904	27552	0	101015	35360
86.54	23341ca4e4830bee	64128	1297661	8576	29904	27520	0	101015	35280
86.54	23341ca4e4830bee	64128	1297852	8576	29904	27520	0	101025	35280
86.54	23341ca4e4830bee	64128	1298043	8576	29904	27520	1	101021	35280
86.54	23341ca4e4830bee	64128	1298235	8576	29904	27520	1	101011	35280
86.54	23341ca4e4830bee	64128	1298437	8576	29984	27520	0	101015	34976
86.54	23341ca4e4830bee	64128	1298628	8576	29984	27520	0	101011	34976
86.54	23341ca4e4830bee	64128	1298819	8576	29984	27520	0	101017	34976
86.54	23341ca4e4830bee	64128	1299011	8576	29984	27520	0	101015	35312
86.54	23341ca4e4830bee	62880	1299202	8576	29920	27536	1	101027	35312
86.54	23341ca4e4830bee	62880	1299393	8576	29920	27536	1	101023	35312
86.54	23341ca4e4830bee	62880	1299584	8576	29920	27536	1	101019	35312
86.54	23341ca4e4830bee	62768	1299775	8576	29936	27536	1	101021	35200
86.54	23341ca4e4830bee	62768	1299957	8576	29936	27536	0	101015	35200
86.54	23341ca4e4830bee	62768	1300189	8576	29936	27536	0	101017	35200
86.54	23341ca4e4830bee	62768	1300380	8576	29936	27536	0	101019	35200
86.54	23341ca4e4830bee	62768	1300571	8576	29904	27520	1	101017	34992
86.54	23341ca4e4830bee	62768	1300762	8576	29904	27520	1	101021	34992
86.54	23341ca4e4830bee	62768	1300953	8576	29904	27520	1	101023	34992
86.54	23341ca4e4830bee	62768	1301144	8576	29904	27520	0	101015	34992
86.54	23341ca4e4830bee	62736	1301335	8576	29920	27536	0	101023	35184
86.54	23341ca4e4830bee	62736	1301526	8576	29920	27536	0	101023	35184
86.54	23341ca4e4830bee	62736	1301707	8576	29920	27536	0	101015	35184
86.54	23341ca4e4830bee	62736	1301898	8576	29920	27536	1	101033	35280
86.54	23341ca4e4830bee	62752	1302090	8576	29936	27504	1	101015	35280
86.54	23341ca4e4830bee	62752	1302281	8576	29936	27504	1	101021	35280
86.54	23341ca4e4830bee	62752	1302472	8576	29936	27504	0	101017	35280
86.54	23341ca4e4830bee	62752	1302663	8576	29904	27520	0	101027	34992
86.54	23341ca4e4830bee	62752	1302854	8576	29904	27520	0	101023	34992
86.54	23341ca4e4830bee	62752	1303045	8576	29904	27520	0	101027	34992
86.54	23341ca4e4830bee	62752	1303236	8576	29904	27520	0	101017	34992
86.54	23341ca4e4830bee	62752	1303418	8576	29904	27536	1	101021	35072
86.54	23341ca4e4830bee	62752	1303609	8576	29904	27536	1	101019	35072
86.54	23341ca4e4830bee	62752	1303800	8576	29904	27536	0	101023	35072
86.54	23341ca4e4830bee	62752	1304037	8576	29904	27536	0	101019	35072
86.54	23341ca4e4830bee	62752	1304228	8576	29920	27568	0	101013	35296
86.54	23341ca4e4830bee	62752	1304427	8576	29920	27568	0	101025	35296
86.54	23341ca4e4830bee	62752	1304608	8576	29920	27568	0	101021	35296
86.54	23341ca4e4830bee	62768	1304799	8448	29920	27568	0	101023	35136
86.54	23341ca4e4830bee	62768	1304990	8448	29888	27536	0	101025	35136
86.54	23341ca4e4830bee	62768	1305181	8448	29888	27536	0	101017	35136
86.54	23341ca4e4830bee	62768	1305372	8448	29888	27536	1	101013	35136
86.54	23341ca4e4830bee	62752	1305563	8576	29920	27536	0	101017	34976
86.54	23341ca4e4830bee	62752	1305755	8576	29920	27536	0	101013	34976
86.54	23341ca4e4830bee	62752	1305946	8576	29920	27536	0	101023	34976
86.54	23341ca4e4830bee	62752	1306137	8576	29920	27536	0	101017	34976
86.54	23341ca4e4830bee	62800	1306319	8576	29888	27552	1	101029	35312
86.54	23341ca4e4830bee	62800	1306510	8576	29888	27552	1	101023	35312
86.54	23341ca4e4830bee	62800	1306712	8576	29888	27552	1	101025	35312
86.54	23341ca4e4830bee	62800	1306904	8576	29888	27552	1	101017	35312
86.54	23341ca4e4830bee	63328	1307095	8576	29920	27520	1	101019	34992
86.54	23341ca4e4830bee	63328	1307286	8576	29920	27520	1	101013	34992
86.54	23341ca4e4830bee	63328	1307477	8576	29920	27520	1	101017	34992
86.54	23341ca4e4830bee	63328	1307668	8576	29920	27520	1	101017	34992
86.54	23341ca4e4830bee	63200	1307901	8576	29904	27536	1	101021	35024
86.54	23341ca4e4830bee	63200	1308092	8576	29904	27536	1	101023	35024
86.54	23341ca4e4830bee	63200	1308283	8576	29904	27536	1	101013	35024
86.54	23341ca4e4830bee	63056	1308474	8576	29904	27536	1	101017	35024
86.54	23341ca4e4830bee	63056	1308665	8576	29904	27536	1	101021	35024
86.54	23341ca4e4830bee	63056	1308856	8576	29904	27536	1	101015	35024
86.54	23341ca4e4830bee	63056	1309047	8576	29904	27536	1	101027	35024
86.54	23341ca4e4830bee	63200	1309228	8576	29888	27520	1	101011	35008
86.54	23341ca4e4830bee	63200	1309419	8576	29888	27520	1	101015	35008
86.54	23341ca4e4830bee	63200	1309610	8576	29888	27520	0	101021	35008
86.54	23341ca4e4830bee	63200	1309801	8576	29888	27520	1	101015	35008
86.54	23341ca4e4830bee	63232	1309992	8576	29888	27520	0	101021	35008
86.54	23341ca4e4830bee	63232	1310184	8576	29888	27520	1	101021	35008
86.54	23341ca4e4830bee	63232	1310375	8576	29888	27520	1	101015	35008
86.54	23341ca4e4830bee	63232	1310566	8576	29888	27520	1	101015	35168
86.54	23341ca4e4830bee	62960	1310757	8576	29888	27488	1	101015	35168
86.54	23341ca4e4830bee	62960	1310949	8576	29888	27488	1	101015	35168
86.54	23341ca4e4830bee	62960	1311140	8576	29888	27488	1	101021	35168
86.54	23341ca4e4830bee	63184	1311331	8576	29904	27536	1	101011	35120
86.54	23341ca4e4830bee	63184	1311522	8576	29904	27536	1	101027	35120
86.54	23341ca4e4830bee	63184	1311764	8576	29904	27536	1	101021	35120
86.54	23341ca4e4830bee	63184	1311955	8576	29904	27536	0	101017	35120
86.54	23341ca4e4830bee	62960	1312146	8576	29920	27520	1	101017	35008
86.54	23341ca4e4830bee	62960	1312337	8576	29920	27520	1	101019	35008
86.54	23341ca4e4830bee	62960	1312518	8576	29920	27520	1	101021	35008
86.54	23341ca4e4830bee	62960	1312709	8576	29920	27520	1	101009	35008
86.54	23341ca4e4830bee	63232	1312901	8576	29888	27552	1	101015	35104
86.54	23341ca4e4830bee	63232	1313092	8576	29888	27552	1	101027	35104
86.54	23341ca4e4830bee	63232	1313283	8576	29888	27552	1	101015	35104
86.54	23341ca4e4830bee	63264	1313481	8576	29888	27552	1	101019	35296
86.54	23341ca4e4830bee	63264	1313683	8576	29888	27536	1	101017	35296
86.54	23341ca4e4830bee	63264	1313874	8576	29888	27536	1	101015	35296
86.54	23341ca4e4830bee	63264	1314065	8576	29888	27536	1	101017	35296
86.54	23341ca4e4830bee	63232	1314256	8576	29904	27520	1	101017	35296
86.54	23341ca4e4830bee	63232	1314447	8576	29904	27520	1	101023	35296
86.54	23341ca4e4830bee	63232	1314629	8576	29904	27520	1	101015	35296
86.54	23341ca4e4830bee	63232	1314820	8576	29904	27520	0	101017	35296
86.54	23341ca4e4830bee	63232	1315011	8576	29904	27520	0	101017	35296
86.54	23341ca4e4830bee	63232	1315203	8576	29904	27520	0	101021	35296
86.54	23341ca4e4830bee	63232	1315394	8576	29904	27520	0	101021	35296
86.54	23341ca4e4830bee	63264	1315636	8704	29904	27520	0	101023	34992
86.54	23341ca4e4830bee	63264	1315827	8704	29872	27504	0	101023	34992
86.54	23341ca4e4830bee	63264	1316018	8704	29872	27504	0	101015	34992
86.54	23341ca4e4830bee	63264	1316199	8704	29872	27504	1	101027	34992
86.54	23341ca4e4830bee	63216	1316390	8576	29872	27520	0	101021	35232
86.54	23341ca4e4830bee	63216	1316581	8576	29872	27520	1	101021	35232
86.54	23341ca4e4830bee	63216	1316772	8576	29872	27520	1	101027	35232
86.54	23341ca4e4830bee	63216	1316963	8576	29872	27520	1	101021	35232
86.54	23341ca4e4830bee	63216	1317154	8576	29872	27552	0	101027	35232
86.54	23341ca4e4830bee	63216	1317345	8576	29872	27552	0	101027	35232
86.54	23341ca4e4830bee	63216	1317537	8576	29872	27552	1	101017	35232
86.54	23341ca4e4830bee	63216	1317728	8576	29872	27552	1	101013	35232
86.54	23341ca4e4830bee	63168	1317909	8576	29872	27536	0	101019	35312
86.54	23341ca4e4830bee	63168	1318100	8576	29872	27536	1	101021	35312
86.54	23341ca4e4830bee	63168	1318291	8576	29872	27536	1	101019	35312
86.54	23341ca4e4830bee	63168	1318482	8576	29872	27536	1	101017	35312
86.54	23341ca4e4830bee	63216	1318678	8576	29856	27568	1	101013	34976
86.54	23341ca4e4830bee	63216	1318859	8576	29856	27568	1	101023	34976
86.54	23341ca4e4830bee	63216	1319050	8576	29856	27568	0	101023	34976
86.54	23341ca4e4830bee	63168	1319242	8576	29856	27568	0	101029	35152
86.54	23341ca4e4830bee	63168	1319475	8576	29856	27568	1	101013	35152
86.54	23341ca4e4830bee	63168	1319666	8576	29856	27568	1	101021	35152
86.54	23341ca4e4830bee	63168	1319857	8576	29856	27568	1	101029	35152
86.54	23341ca4e4830bee	63136	1320048	8576	29888	27584	0	101027	35248
86.54	23341ca4e4830bee	63136	1320229	8576	29888	27584	1	101023	35248
86.54	23341ca4e4830bee	63136	1320420	8576	29888	27584	1	101013	35248
86.54	23341ca4e4830bee	63136	1320611	8576	29888	27584	1	101023	35248
86.54	23341ca4e4830bee	62784	1320802	8576	29920	27472	1	101021	35104
86.54	23341ca4e4830bee	62784	1320993	8576	29920	27472	1	101019	35104
86.54	23341ca4e4830bee	62784	1321184	8576	29920	27472	1	101017	35104
86.54	23341ca4e4830bee	62784	1321375	8576	29920	27472	1	101013	35104
86.54	23341ca4e4830bee	63648	1321567	8576	30032	27616	1	101017	35136
86.54	23341ca4e4830bee	63648	1321758	8576	30032	27616	1	101023	35136
86.54	23341ca4e4830bee	63648	1321939	8576	30032	27616	1	101019	35136
86.54	23341ca4e4830bee	62864	1322130	8576	30032	27616	1	101019	35280
86.54	23341ca4e4830bee	62864	1322322	8576	30064	27840	1	101015	35280
86.54	23341ca4e4830bee	62864	1322513	8576	30064	27840	1	101017	35280
86.54	23341ca4e4830bee	62864	1322704	8576	30064	27840	1	101019	35280
86.54	23341ca4e4830bee	62944	1322895	8576	30128	27776	0	101021	35232
86.54	23341ca4e4830bee	62944	1323086	8576	30128	27776	0	101027	35232
86.54	23341ca4e4830bee	62944	1323323	8576	30128	27776	0	101017	35232
86.54	23341ca4e4830bee	62944	1323514	8576	30128	27776	0	101013	35232
86.54	23341ca4e4830bee	62960	1323705	8576	30144	27808	0	101033	35264
86.54	23341ca4e4830bee	62960	1323896	8576	30144	27808	0	101009	35264
86.54	23341ca4e4830bee	62960	1324087	8576	30144	27808	0	101027	35264
86.54	23341ca4e4830bee	62960	1324278	8576	30144	27808	0	101021	35264
86.54	23341ca4e4830bee	62960	1324459	8576	30128	27792	0	101027	35072
86.54	23341ca4e4830bee	62960	1324650	8576	30128	27792	0	101021	35072
86.54	23341ca4e4830bee	62960	1324841	8576	30128	27792	0	101017	35072
86.54	23341ca4e4830bee	62976	1325032	8576	30128	27792	0	101017	34944
86.54	23341ca4e4830bee	62976	1325224	8576	30160	27840	0	101023	34944
86.54	23341ca4e4830bee	62976	1325415	8576	30160	27840	0	101023	34944
86.54	23341ca4e4830bee	62976	1325606	8576	30160	27840	0	101025	34944
86.54	23341ca4e4830bee	62976	1325797	8576	30160	27792	0	101027	35200
86.54	23341ca4e4830bee	62976	1325988	8576	30160	27792	0	101017	35200
86.54	23341ca4e4830bee	62976	1326169	8576	30160	27792	0	101027	35200
86.54	23341ca4e4830bee	62976	1326360	8576	30160	27792	0	101015	35200
86.54	23341ca4e4830bee	62880	1326552	8576	30176	27392	1	101025	35280
86.54	23341ca4e4830bee	62880	1326743	8576	30176	27392	1	101033	35280
86.54	23341ca4e4830bee	62880	1326934	8576	30176	27392	1	101021	35280
86.54	23341ca4e4830bee	62880	1327172	8576	30176	27392	1	101027	35088
86.54	23341ca4e4830bee	64464	1327363	8576	29776	27216	1	101017	35088
86.54	23341ca4e4830bee	64464	1327554	8576	29776	27216	1	101021	35088
86.54	23341ca4e4830bee	64464	1327746	8576	29776	27216	1	101029	35088
86.54	23341ca4e4830bee	65056	1327937	8576	30256	27216	1	101021	35328
86.54	23341ca4e4830bee	65056	1328128	8576	30256	27920	1	101023	35328
86.54	23341ca4e4830bee	65056	1328319	8576	30256	27920	1	101021	35328
86.54	23341ca4e4830bee	65056	1328511	8576	30256	27920	1	101017	35328
86.54	23341ca4e4830bee	65104	1328708	8576	30192	27888	1	101023	35296
86.54	23341ca4e4830bee	65104	1328890	8576	30192	27888	1	101015	35296
86.54	23341ca4e4830bee	65104	1329081	8576	30192	27888	0	101025	35296
86.54	23341ca4e4830bee	65104	1329272	8576	30192	27888	0	101011	35296
86.54	23341ca4e4830bee	65104	1329463	8576	30160	27920	0	101021	35312
86.54	23341ca4e4830bee	65104	1329654	8576	30160	27920	1	101027	35312
86.54	23341ca4e4830bee	65104	1329845	8576	30160	27920	1	101027	35312
86.54	23341ca4e4830bee	65104	1330036	8576	30160	27920	1	101019	35312
86.54	23341ca4e4830bee	64416	1330228	8576	30144	27888	1	101019	35248
86.54	23341ca4e4830bee	64416	1330419	8576	30144	27888	1	101013	35248
86.54	23341ca4e4830bee	64416	1330600	8576	30144	27888	0	101017	35248
86.54	23341ca4e4830bee	64416	1330791	8704	30144	27888	1	101021	35296
86.54	23341ca4e4830bee	64384	1331034	8704	30048	27808	1	101029	35296
86.54	23341ca4e4830bee	64384	1331225	8704	30048	27808	1	101021	35296
86.54	23341ca4e4830bee	64384	1331416	8704	30048	27808	1	101021	35296
86.54	23341ca4e4830bee	64384	1331607	8576	30144	27776	1	101021	34976
86.54	23341ca4e4830bee	64384	1331798	8576	30144	27776	1	101017	34976
86.54	23341ca4e4830bee	64384	1331989	8576	30144	27776	1	101025	34976
86.54	23341ca4e4830bee	64384	1332171	8576	30144	27776	1	101019	34976
86.54	23341ca4e4830bee	63792	1332362	8704	30800	28176	1	101017	35056
86.54	23341ca4e4830bee	63792	1332553	8704	30800	28176	1	101021	35056
86.54	23341ca4e4830bee	63792	1332744	8704	30800	28176	1	101021	35056
86.54	23341ca4e4830bee	63792	1332935	8576	30800	28176	1	101021	35056
86.54	23341ca4e4830bee	62480	1333126	8576	30768	28176	1	101027	34960
86.54	23341ca4e4830bee	62480	1333318	8576	30768	28176	1	101027	34960
86.54	23341ca4e4830bee	62480	1333509	8576	30768	28176	1	101013	34960
86.54	23341ca4e4830bee	61808	1333690	8576	30768	28176	0	101017	35152
86.54	23341ca4e4830bee	61808	1333881	8576	30768	28128	1	101023	35152
86.54	23341ca4e4830bee	61808	1334073	8576	30768	28128	1	101019	35152
86.54	23341ca4e4830bee	61808	1334264	8576	30768	28128	1	101021	35152
86.54	23341ca4e4830bee	61728	1334455	8576	30768	28144	1	101021	35296
86.54	23341ca4e4830bee	61728	1334646	8576	30768	28144	1	101019	35296
86.54	23341ca4e4830bee	61728	1334888	8576	30768	28144	0	101011	35296
86.54	23341ca4e4830bee	61728	1335079	8576	30768	28144	1	101019	35296
86.54	23341ca4e4830bee	61712	1335290	8576	30800	28128	1	101021	35104
86.54	23341ca4e4830bee	61712	1335471	8576	30800	28128	1	101021	35104
86.54	23341ca4e4830bee	61712	1335662	8576	30800	28128	1	101023	35104
86.54	23341ca4e4830bee	61696	1335853	8576	30800	28128	1	101027	35008
86.54	23341ca4e4830bee	61696	1336044	8576	30784	28160	1	101017	35008
86.54	23341ca4e4830bee	61696	1336235	8576	30784	28160	1	101021	35008
86.54	23341ca4e4830bee	61696	1336426	8576	30784	28160	0	101017	35008
86.54	23341ca4e4830bee	61696	1336617	8576	30800	28144	0	101015	34992
86.54	23341ca4e4830bee	61696	1336808	8576	30800	28144	0	101009	34992
86.54	23341ca4e4830bee	61696	1337000	8576	30800	28144	0	101023	34992
86.54	23341ca4e4830bee	61696	1337181	8576	30800	28144	0	101015	34992
86.54	23341ca4e4830bee	61696	1337372	8576	30784	28176	0	101021	35184
86.54	23341ca4e4830bee	61696	1337563	8576	30784	28176	0	101015	35184
86.54	23341ca4e4830bee	61696	1337754	8576	30784	28176	0	101021	35184
86.54	23341ca4e4830bee	61696	1337946	8576	30784	28176	0	101011	35184
86.54	23341ca4e4830bee	61696	1338137	8576	30816	28144	0	101017	35104
86.54	23341ca4e4830bee	61696	1338328	8576	30816	28144	0	101021	35104
86.54	23341ca4e4830bee	61696	1338519	8576	30816	28144	0	101015	35104
86.54	23341ca4e4830bee	61696	1338746	8576	30816	28144	0	101015	35280
86.54	23341ca4e4830bee	61696	1338937	8576	30768	28160	0	101011	35280
86.54	23341ca4e4830bee	61696	1339128	8576	30768	28160	0	101027	35280
86.54	23341ca4e4830bee	61696	1339320	8576	30768	28160	0	101017	35280
86.54	23341ca4e4830bee	61696	1339511	8576	30800	28128	0	101017	35104
86.54	23341ca4e4830bee	61696	1339692	8576	30800	28128	0	101017	35104
86.54	23341ca4e4830bee	61696	1339883	8576	30800	28128	0	101017	35104
86.54	23341ca4e4830bee	61696	1340074	8576	30800	28128	0	101015	35104
86.54	23341ca4e4830bee	61696	1340265	8576	30768	28160	0	101023	35312
86.54	23341ca4e4830bee	61696	1340456	8576	30768	28160	0	101021	35312
86.54	23341ca4e4830bee	61696	1340647	8576	30768	28160	0	101005	35312
86.54	23341ca4e4830bee	61696	1340838	8576	30768	28160	0	101005	35312
86.54	23341ca4e4830bee	61696	1341029	8576	30768	28160	0	101021	35344
86.54	23341ca4e4830bee	61696	1341221	8576	30768	28160	0	101021	35344
86.54	23341ca4e4830bee	61696	1341402	8576	30768	28160	0	101015	35344
86.54	23341ca4e4830bee	61696	1341593	8576	30768	28160	0	101015	35344
86.54	23341ca4e4830bee	61696	1341784	8576	30816	28160	0	101021	35120
86.54	23341ca4e4830bee	61696	1341975	8576	30816	28160	0	101017	35120
86.54	23341ca4e4830bee	61696	1342167	8576	30816	28160	0	101021	35120
86.54	23341ca4e4830bee	61696	1342358	8576	30816	28160	0	101021	35312
86.54	23341ca4e4830bee	61696	1342589	8576	30784	28160	0	101027	35312
86.54	23341ca4e4830bee	61696	1342780	8576	30784	28160	0	101015	35312
86.54	23341ca4e4830bee	61696	1342971	8576	30784	28160	0	101019	35312
86.54	23341ca4e4830bee	61696	1343162	8576	30816	28144	0	101009	34992
86.54	23341ca4e4830bee	61696	1343353	8576	30816	28144	0	101011	34992
86.54	23341ca4e4830bee	61696	1343544	8576	30816	28144	0	101007	34992
86.54	23341ca4e4830bee	61696	1343735	8576	30816	28144	0	101015	34992
86.54	23341ca4e4830bee	61696	1343926	8576	30784	28144	0	101009	35216
86.54	23341ca4e4830bee	61696	1344118	8576	30784	28144	0	101017	35216
86.54	23341ca4e4830bee	61696	1344309	8576	30784	28144	0	101019	35216
86.54	23341ca4e4830bee	61696	1344500	8576	30784	28144	0	101015	35216
86.54	23341ca4e4830bee	61696	1344701	8576	30784	28128	0	101017	35104
86.54	23341ca4e4830bee	61696	1344882	8576	30784	28128	0	101017	35104
86.54	23341ca4e4830bee	61696	1345073	8576	30784	28128	0	101021	35104
86.54	23341ca4e4830bee	61696	1345265	8576	30784	28128	0	101007	35248
86.54	23341ca4e4830bee	61696	1345456	8576	30800	28144	0	101023	35248
86.54	23341ca4e4830bee	61696	1345647	8576	30800	28144	0	101017	35248
86.54	23341ca4e4830bee	61696	1345838	8576	30800	28144	0	101017	35248
86.54	23341ca4e4830bee	61696	1346029	8576	30768	28128	0	101011	35312
86.54	23341ca4e4830bee	61696	1346221	8576	30768	28128	0	101011	35312
86.54	23341ca4e4830bee	61696	1346460	8576	30768	28128	0	101017	35312
86.54	23341ca4e4830bee	61696	1346651	8576	30768	28128	0	101021	35312
86.54	23341ca4e4830bee	61696	1346832	8576	30816	28160	0	101019	34960
86.54	23341ca4e4830bee	61696	1347023	8576	30816	28160	0	101021	34960
86.54	23341ca4e4830bee	61696	1347214	8576	30816	28160	0	101027	34960
86.54	23341ca4e4830bee	61696	1347405	8576	30816	28160	0	101005	34960
86.54	23341ca4e4830bee	61696	1347596	8576	30768	28096	0	101007	34960
86.54	23341ca4e4830bee	61696	1347787	8576	30768	28096	0	101017	34960
86.54	23341ca4e4830bee	61696	1347979	8576	30768	28096	0	101017	34960
86.54	23341ca4e4830bee	61680	1348170	8576	30784	28096	0	101005	35088
86.54	23341ca4e4830bee	61680	1348361	8576	30784	28112	0	101021	35088
86.54	23341ca4e4830bee	61680	1348542	8576	30784	28112	0	101015	35088
86.54	23341ca4e4830bee	61680	1348733	8576	30784	28112	0	101017	35088
86.54	23341ca4e4830bee	61696	1348924	8576	30768	28128	0	101011	35008
86.54	23341ca4e4830bee	61696	1349115	8576	30768	28128	0	101027	35008
86.54	23341ca4e4830bee	61696	1349307	8576	30768	28128	0	101021	35008
86.54	23341ca4e4830bee	61696	1349498	8576	30768	28128	0	101021	35008
86.54	23341ca4e4830bee	61696	1349689	8576	30768	28128	0	101017	35184
86.54	23341ca4e4830bee	61696	1349880	8576	30768	28128	0	101017	35184
86.54	23341ca4e4830bee	61696	1350072	8576	30768	28128	0	101021	35184
86.54	23341ca4e4830bee	61696	1350330	8576	30800	28128	0	101017	34960
86.54	23341ca4e4830bee	61696	1350521	8576	30800	28144	0	101015	34960
86.54	23341ca4e4830bee	61696	1350715	8576	30800	28144	0	101015	34960
86.54	23341ca4e4830bee	61696	1350906	8576	30800	28144	0	101029	34960
86.54	23341ca4e4830bee	61696	1351097	8576	30768	28192	0	101015	34976
86.54	23341ca4e4830bee	61696	1351288	8576	30768	28192	0	101017	34976
86.54	23341ca4e4830bee	61696	1351479	8576	30768	28192	0	101021	34976
86.54	23341ca4e4830bee	61696	1351670	8576	30768	28192	0	101015	34976
86.54	23341ca4e4830bee	61696	1351861	8576	30784	28144	0	101015	35136
86.54	23341ca4e4830bee	61696	1352052	8576	30784	28144	0	101023	35136
86.54	23341ca4e4830bee	61696	1352243	8576	30784	28144	0	101021	35136
86.54	23341ca4e4830bee	61696	1352435	8576	30784	28144	0	101009	35136
86.54	23341ca4e4830bee	61696	1352626	8576	30800	28096	0	101015	35328
86.54	23341ca4e4830bee	61696	1352817	8576	30800	28096	0	101015	35328
86.54	23341ca4e4830bee	61696	1353008	8576	30800	28096	0	101007	35328
86.54	23341ca4e4830bee	61696	1353200	8576	30800	28096	0	101015	35120
86.54	23341ca4e4830bee	61696	1353391	8576	30816	28160	0	101015	35120
86.54	23341ca4e4830bee	61696	1353582	8576	30816	28160	0	101015	35120
86.54	23341ca4e4830bee	61696	1353763	8576	30816	28160	0	101015	35120
86.54	23341ca4e4830bee	61696	1353955	8576	30816	28112	0	101017	35216
86.54	23341ca4e4830bee	61696	1354199	8576	30816	28112	0	101021	35216
86.54	23341ca4e4830bee	61696	1354390	8576	30816	28112	0	101011	35216
86.54	23341ca4e4830bee	61696	1354581	8576	30816	28112	0	101021	35216
86.54	23341ca4e4830bee	61696	1354773	8576	30800	28144	0	101017	35328
86.54	23341ca4e4830bee	61696	1354964	8576	30800	28144	0	101023	35328
86.54	23341ca4e4830bee	61696	1355155	8576	30800	28144	0	101023	35328
86.54	23341ca4e4830bee	61696	1355346	8576	30800	28144	0	101015	35296
86.54	23341ca4e4830bee	61696	1355537	8576	30784	28112	0	101009	35296
86.54	23341ca4e4830bee	61696	1355728	8576	30784	28112	0	101015	35296
86.54	23341ca4e4830bee	61696	1355919	8576	30784	28112	0	101011	35296
86.54	23341ca4e4830bee	61696	1356110	8576	30784	28112	0	101015	35152
86.54	23341ca4e4830bee	61696	1356301	8576	30784	28128	0	101007	35152
86.54	23341ca4e4830bee	61696	1356492	8576	30784	28128	0	101013	35152
86.54	23341ca4e4830bee	61696	1356674	8576	30784	28128	0	101011	35152
86.54	23341ca4e4830bee	61696	1356865	8576	30816	28128	0	101015	35056
86.54	23341ca4e4830bee	61696	1357056	8576	30816	28128	0	101011	35056
86.54	23341ca4e4830bee	61696	1357247	8576	30816	28128	0	101011	35056
86.54	23341ca4e4830bee	61696	1357438	8576	30816	28128	0	101015	35056
86.54	23341ca4e4830bee	61696	1357630	8576	30768	28160	0	101021	35328
86.54	23341ca4e4830bee	61696	1357821	8576	30768	28160	0	101015	35328
86.54	23341ca4e4830bee	61696	1358054	8576	30768	28160	0	101005	35328
86.54	23341ca4e4830bee	61696	1358245	8576	30768	28160	0	101017	35088
86.54	23341ca4e4830bee	61696	1358441	8576	30768	28128	0	101009	35088
86.54	23341ca4e4830bee	61696	1358632	8576	30768	28128	0	101017	35088
86.54	23341ca4e4830bee	61696	1358823	8576	30768	28128	0	101011	35088
86.54	23341ca4e4830bee	61696	1359014	8576	30784	28112	0	101015	35296
86.54	23341ca4e4830bee	61696	1359205	8576	30784	28112	0	101015	35296
86.54	23341ca4e4830bee	61696	1359396	8576	30784	28112	0	101009	35296
86.54	23341ca4e4830bee	61696	1359588	8576	30784	28112	0	101017	35296
86.54	23341ca4e4830bee	61696	1359779	8576	30784	28128	0	101021	35056
86.54	23341ca4e4830bee	61696	1359970	8576	30784	28128	0	101021	35056
86.54	23341ca4e4830bee	61696	1360161	8576	30784	28128	0	101009	35056
86.54	23341ca4e4830bee	61696	1360352	8576	30784	28128	0	101003	35056
86.54	23341ca4e4830bee	61696	1360543	8576	30784	28144	0	101015	35056
86.54	23341ca4e4830bee	61696	1360734	8576	30784	28144	0	101009	35056
86.54	23341ca4e4830bee	61696	1360926	8576	30784	28144	0	101015	35056
86.54	23341ca4e4830bee	61696	1361117	8704	30784	28144	0	101005	35056
86.54	23341ca4e4830bee	61696	1361308	8704	30816	28144	0	101009	35264
86.54	23341ca4e4830bee	61696	1361499	8704	30816	28144	0	101015	35264
86.54	23341ca4e4830bee	61696	1361690	8704	30816	28144	0	101015	35264
86.54	23341ca4e4830bee	61696	1361923	8576	30784	28176	0	101025	35248
86.54	23341ca4e4830bee	61696	1362104	8576	30784	28176	0	101015	35248
86.54	23341ca4e4830bee	61696	1362295	8576	30784	28176	0	101015	35248
86.54	23341ca4e4830bee	61696	1362486	8576	30784	28176	0	101015	35248
86.54	23341ca4e4830bee	61696	1362677	8576	30800	28144	0	101015	35344
86.54	23341ca4e4830bee	61696	1362868	8576	30800	28144	0	101009	35344
86.54	23341ca4e4830bee	61696	1363060	8576	30800	28144	0	101015	35344
86.54	23341ca4e4830bee	61696	1363251	8576	30800	28144	0	101017	35344
86.54	23341ca4e4830bee	61696	1363442	8576	30800	28128	0	101023	34960
86.54	23341ca4e4830bee	61696	1363633	8576	30800	28128	0	101015	34960
86.54	23341ca4e4830bee	61696	1363814	8576	30800	28128	0	101011	34960
86.54	23341ca4e4830bee	61696	1364005	8576	30800	28128	0	101005	34960
86.54	23341ca4e4830bee	61696	1364196	8576	30816	28144	0	101015	35056
86.54	23341ca4e4830bee	61696	1364387	8576	30816	28144	0	101015	35056
86.54	23341ca4e4830bee	61696	1364578	8576	30816	28144	0	101011	35056
86.54	23341ca4e4830bee	61680	1364770	8704	30816	28144	0	101021	35344
86.54	23341ca4e4830bee	61680	1364961	8704	30768	28176	0	101015	35344
86.54	23341ca4e4830bee	61680	1365153	8704	30768	28176	0	101017	35344
86.54	23341ca4e4830bee	61680	1365334	8704	30768	28176	0	101019	35344
86.54	23341ca4e4830bee	61680	1365525	8576	30800	28128	0	101017	35328