Digit_temp	id	light	timestamp	acc_z	acc_y	acc_x	motion	pressure	humid
86.0	23341ca4e4830bee	61920	1765356	8448	32416	25568	0	101015	35136
86.0	23341ca4e4830bee	61920	1765557	8448	32416	25568	0	101011	35136
86.0	23341ca4e4830bee	61920	1765748	8448	32416	25568	0	101007	35136
86.0	23341ca4e4830bee	61920	1765939	8448	32416	25568	0	101001	35136
86.0	23341ca4e4830bee	61904	1766130	8448	32384	25552	0	101007	35056
86.0	23341ca4e4830bee	61904	1766321	8448	32384	25552	0	101005	35056
86.0	23341ca4e4830bee	61904	1766512	8448	32384	25552	0	101013	35056
86.0	23341ca4e4830bee	61904	1766703	8448	32384	25552	0	101013	35056
86.0	23341ca4e4830bee	61904	1766884	8448	32448	25584	0	101007	35264
86.0	23341ca4e4830bee	61904	1767075	8448	32448	25584	0	101015	35264
86.0	23341ca4e4830bee	61904	1767266	8448	32448	25584	0	101021	35264
86.0	23341ca4e4830bee	61904	1767457	8576	32448	25584	0	101007	35184
86.0	23341ca4e4830bee	61904	1767648	8576	32448	25536	0	101017	35184
86.0	23341ca4e4830bee	61904	1767839	8576	32448	25536	0	101005	35184
86.0	23341ca4e4830bee	61904	1768030	8576	32448	25536	0	101011	35184
86.0	23341ca4e4830bee	61920	1768221	8448	32400	25552	0	101017	35120
86.0	23341ca4e4830bee	61920	1768412	8448	32400	25552	0	101005	35120
86.0	23341ca4e4830bee	61920	1768593	8448	32400	25552	0	101019	35120
86.0	23341ca4e4830bee	61920	1768784	8448	32400	25552	0	101027	35120
86.0	23341ca4e4830bee	61904	1768975	8448	32416	25552	0	101017	35296
86.0	23341ca4e4830bee	61904	1769221	8448	32416	25552	0	101013	35296
86.0	23341ca4e4830bee	61904	1769412	8448	32416	25552	0	101007	35296
86.0	23341ca4e4830bee	61904	1769604	8448	32416	25552	0	101013	35344
86.0	23341ca4e4830bee	61920	1769795	8448	32416	25536	0	101013	35344
86.0	23341ca4e4830bee	61920	1769986	8448	32416	25536	0	101017	35344
86.0	23341ca4e4830bee	61920	1770177	8448	32416	25536	0	101005	35344
86.0	23341ca4e4830bee	61920	1770368	8576	32400	25536	0	101011	35328
86.0	23341ca4e4830bee	61920	1770559	8576	32400	25536	0	101009	35328
86.0	23341ca4e4830bee	61920	1770750	8576	32400	25536	0	101017	35328
86.0	23341ca4e4830bee	61920	1770941	8576	32400	25536	0	101007	35328
86.0	23341ca4e4830bee	61920	1771132	8448	32416	25520	0	101007	35328
86.0	23341ca4e4830bee	61920	1771323	8448	32416	25520	0	101013	35328
86.0	23341ca4e4830bee	61920	1771504	8448	32416	25520	0	101017	35328
86.0	23341ca4e4830bee	61920	1771696	8448	32416	25520	0	101001	35328
86.0	23341ca4e4830bee	61920	1771898	8448	32432	25552	0	101013	34976
86.0	23341ca4e4830bee	61920	1772089	8448	32432	25552	0	101007	34976
86.0	23341ca4e4830bee	61920	1772280	8448	32432	25552	1	101017	34976
86.0	23341ca4e4830bee	61920	1772472	8448	32432	25552	1	101013	34976
86.0	23341ca4e4830bee	61936	1772663	8448	32400	25552	1	101013	35264
86.0	23341ca4e4830bee	61936	1772844	8448	32400	25552	1	101001	35264
86.0	23341ca4e4830bee	61936	1773086	8448	32400	25552	1	101011	35264
86.0	23341ca4e4830bee	61936	1773277	8576	32416	25536	1	101013	35136
86.0	23341ca4e4830bee	61936	1773469	8576	32416	25536	0	101021	35136
86.0	23341ca4e4830bee	61936	1773660	8576	32416	25536	1	101007	35136
86.0	23341ca4e4830bee	61936	1773851	8576	32416	25536	1	101013	35136
86.0	23341ca4e4830bee	61952	1774042	8576	32416	25536	1	101011	35344
86.0	23341ca4e4830bee	61952	1774233	8576	32416	25536	1	101007	35344
86.0	23341ca4e4830bee	61952	1774424	8576	32416	25536	0	101007	35344
86.0	23341ca4e4830bee	61952	1774605	8576	32416	25536	0	101013	35344
86.0	23341ca4e4830bee	61952	1774796	8448	32400	25536	0	101013	35360
86.0	23341ca4e4830bee	61952	1774987	8448	32400	25536	0	101005	35360
86.0	23341ca4e4830bee	61952	1775178	8448	32400	25536	0	101005	35360
86.0	23341ca4e4830bee	61952	1775370	8448	32400	25536	0	101011	35360
86.0	23341ca4e4830bee	61920	1775561	8448	32432	25568	0	101013	35296
86.0	23341ca4e4830bee	61920	1775752	8448	32432	25568	0	101013	35296
86.0	23341ca4e4830bee	61920	1775943	8448	32432	25568	0	101017	35296
86.0	23341ca4e4830bee	61920	1776134	8448	32432	25568	0	101013	35296
86.0	23341ca4e4830bee	61920	1776325	8448	32448	25536	0	101007	35296
86.0	23341ca4e4830bee	61920	1776517	8448	32448	25536	0	101007	35296
86.0	23341ca4e4830bee	61920	1776708	8448	32448	25536	0	101017	35296
86.0	23341ca4e4830bee	61920	1776948	8576	32416	25520	0	101013	35024
86.0	23341ca4e4830bee	61920	1777139	8576	32416	25520	0	101017	35024
86.0	23341ca4e4830bee	61920	1777330	8576	32416	25520	0	101007	35024
86.0	23341ca4e4830bee	61920	1777521	8448	32416	25520	0	101017	35024
86.0	23341ca4e4830bee	61920	1777712	8448	32400	25536	0	101021	35280
86.0	23341ca4e4830bee	61920	1777904	8448	32400	25536	0	101013	35280
86.0	23341ca4e4830bee	61920	1778095	8448	32400	25536	0	101011	35280
86.0	23341ca4e4830bee	61920	1778286	8448	32400	25536	0	101017	35136
86.0	23341ca4e4830bee	61920	1778477	8448	32432	25584	0	101007	35136
86.0	23341ca4e4830bee	61920	1778668	8448	32432	25584	0	101017	35136
86.0	23341ca4e4830bee	61920	1778859	8448	32432	25584	0	101007	35136
86.0	23341ca4e4830bee	61920	1779051	8576	32400	25552	0	101013	34992
86.0	23341ca4e4830bee	61920	1779242	8576	32400	25552	0	101019	34992
86.0	23341ca4e4830bee	61920	1779433	8576	32400	25552	0	101017	34992
86.0	23341ca4e4830bee	61920	1779624	8576	32400	25552	0	101009	34992
86.0	23341ca4e4830bee	61920	1779805	8448	32400	25568	0	101011	35312
86.0	23341ca4e4830bee	61920	1779996	8448	32400	25568	0	101019	35312
86.0	23341ca4e4830bee	61920	1780188	8448	32400	25568	0	101017	35312
86.0	23341ca4e4830bee	61920	1780379	8448	32400	25568	0	101011	35312
86.0	23341ca4e4830bee	61920	1780570	8576	32368	25552	0	101019	35040
86.0	23341ca4e4830bee	61920	1780811	8576	32368	25552	0	101007	35040
86.0	23341ca4e4830bee	61920	1781002	8576	32368	25552	0	101013	35040
86.0	23341ca4e4830bee	61920	1781193	8576	32368	25552	0	101025	35040
86.0	23341ca4e4830bee	61920	1781395	8576	32416	25536	0	101007	35040
86.0	23341ca4e4830bee	61920	1781576	8576	32416	25536	0	101011	35040
86.0	23341ca4e4830bee	61920	1781767	8576	32416	25536	0	101019	35040
86.0	23341ca4e4830bee	61920	1781958	8576	32416	25552	0	101007	35088
86.0	23341ca4e4830bee	61920	1782149	8576	32416	25552	0	101017	35088
86.0	23341ca4e4830bee	61920	1782340	8576	32416	25552	0	101013	35088
86.0	23341ca4e4830bee	61920	1782531	8576	32416	25552	0	101019	35088
86.0	23341ca4e4830bee	61920	1782722	8448	32432	25552	0	101017	35280
86.0	23341ca4e4830bee	61920	1782913	8448	32432	25552	0	101003	35280
86.0	23341ca4e4830bee	61920	1783105	8448	32432	25552	0	101013	35280
86.0	23341ca4e4830bee	61920	1783286	8448	32432	25552	0	101013	35280
86.0	23341ca4e4830bee	61920	1783477	8448	32416	25568	0	101019	35296
86.0	23341ca4e4830bee	61920	1783668	8448	32416	25568	0	101013	35296
86.0	23341ca4e4830bee	61920	1783860	8448	32416	25568	0	101017	35296
86.0	23341ca4e4830bee	61920	1784051	8448	32416	25568	0	101003	35376
86.0	23341ca4e4830bee	61920	1784242	8448	32384	25552	0	101019	35376
86.0	23341ca4e4830bee	61920	1784433	8448	32384	25552	0	101021	35376
86.0	23341ca4e4830bee	61920	1784664	8448	32384	25552	0	101007	35376
86.0	23341ca4e4830bee	61920	1784845	8576	32432	25536	0	101003	35152
86.0	23341ca4e4830bee	61920	1785036	8576	32432	25536	0	101007	35152
86.0	23341ca4e4830bee	61920	1785228	8576	32432	25536	0	101007	35152
86.0	23341ca4e4830bee	61920	1785427	8576	32432	25536	0	101013	35152
86.0	23341ca4e4830bee	61920	1785618	8448	32400	25568	0	101013	35312
86.0	23341ca4e4830bee	61920	1785810	8448	32400	25568	0	101013	35312
86.0	23341ca4e4830bee	61920	1786001	8448	32400	25568	0	101007	35312
86.0	23341ca4e4830bee	61920	1786192	8448	32400	25568	0	101013	35312
86.0	23341ca4e4830bee	61920	1786387	8448	32400	25568	0	101007	35104
86.0	23341ca4e4830bee	61920	1786578	8448	32400	25568	0	101007	35104
86.0	23341ca4e4830bee	61920	1786769	8448	32400	25568	0	101007	35104
86.0	23341ca4e4830bee	61920	1786960	8448	32400	25568	0	101011	34960
86.0	23341ca4e4830bee	61920	1787151	8448	32416	25520	0	101007	34960
86.0	23341ca4e4830bee	61920	1787343	8448	32416	25520	0	101011	34960
86.0	23341ca4e4830bee	61920	1787534	8448	32416	25520	0	101003	34960
86.0	23341ca4e4830bee	61920	1787725	8448	32432	25520	0	101013	35312
86.0	23341ca4e4830bee	61920	1787906	8448	32432	25520	0	101021	35312
86.0	23341ca4e4830bee	61920	1788097	8448	32432	25520	0	101011	35312
86.0	23341ca4e4830bee	61920	1788289	8448	32432	25520	0	101007	35312
86.0	23341ca4e4830bee	61920	1788534	8576	32400	25536	0	101007	34928
86.0	23341ca4e4830bee	61920	1788725	8576	32400	25536	0	101011	34928
86.0	23341ca4e4830bee	61920	1788916	8576	32400	25536	0	101013	34928
86.0	23341ca4e4830bee	61920	1789107	8448	32400	25536	0	101013	34976
86.0	23341ca4e4830bee	61920	1789298	8448	32432	25584	0	101013	34976
86.0	23341ca4e4830bee	61920	1789489	8448	32432	25584	0	101013	34976
86.0	23341ca4e4830bee	61920	1789680	8448	32432	25584	0	101007	34976
86.0	23341ca4e4830bee	61920	1789871	8576	32416	25584	0	101009	35120
86.0	23341ca4e4830bee	61920	1790062	8576	32416	25520	0	101011	35120
86.0	23341ca4e4830bee	61920	1790253	8576	32416	25520	0	101009	35120
86.0	23341ca4e4830bee	61920	1790444	8576	32416	25520	0	101007	35120
86.0	23341ca4e4830bee	61920	1790636	8576	32432	25536	0	101009	34976
86.0	23341ca4e4830bee	61920	1790817	8576	32432	25536	0	101007	34976
86.0	23341ca4e4830bee	61920	1791008	8576	32432	25536	0	101013	34976
86.0	23341ca4e4830bee	61920	1791199	8576	32432	25536	0	101015	34976
86.0	23341ca4e4830bee	61920	1791390	8576	32416	25568	0	101009	34928
86.0	23341ca4e4830bee	61920	1791581	8576	32416	25568	0	101007	34928
86.0	23341ca4e4830bee	61920	1791773	8576	32416	25568	0	101003	34928
86.0	23341ca4e4830bee	61920	1791964	8448	32416	25568	0	101007	34928
86.0	23341ca4e4830bee	61920	1792155	8448	32400	25536	0	101011	35328
86.0	23341ca4e4830bee	61920	1792376	8448	32400	25536	0	101009	35328
86.0	23341ca4e4830bee	61920	1792557	8448	32400	25536	0	101021	35328
86.0	23341ca4e4830bee	61920	1792748	8448	32400	25536	0	101013	35328
86.0	23341ca4e4830bee	61920	1792939	8448	32384	25552	0	101019	35328
86.0	23341ca4e4830bee	61920	1793130	8448	32384	25552	0	101017	35328
86.0	23341ca4e4830bee	61920	1793321	8448	32384	25552	0	101017	35328
86.0	23341ca4e4830bee	61920	1793525	8576	32416	25568	0	101005	35232
86.0	23341ca4e4830bee	61920	1793716	8576	32416	25568	0	101013	35232
86.0	23341ca4e4830bee	61920	1793897	8576	32416	25568	0	101013	35232
86.0	23341ca4e4830bee	61920	1794088	8576	32416	25568	0	101021	35232
86.0	23341ca4e4830bee	61920	1794279	8576	32400	25568	0	101007	35296
86.0	23341ca4e4830bee	61920	1794470	8576	32400	25568	0	101015	35296
86.0	23341ca4e4830bee	61920	1794661	8576	32400	25568	0	101007	35296
86.0	23341ca4e4830bee	61920	1794852	8448	32400	25568	0	101007	35296
86.0	23341ca4e4830bee	61920	1795044	8448	32432	25536	0	101017	35296
86.0	23341ca4e4830bee	61920	1795235	8448	32432	25536	0	101019	35296
86.0	23341ca4e4830bee	61920	1795426	8448	32432	25536	0	101003	35296
86.0	23341ca4e4830bee	61920	1795607	8448	32432	25536	0	101005	35072
86.0	23341ca4e4830bee	61920	1795798	8448	32432	25536	0	101015	35072
86.0	23341ca4e4830bee	61920	1795990	8448	32432	25536	0	101015	35072
86.0	23341ca4e4830bee	61920	1796237	8448	32432	25536	0	101015	35072
86.0	23341ca4e4830bee	61920	1796428	8448	32400	25552	0	101011	35008
86.0	23341ca4e4830bee	61920	1796619	8448	32400	25552	0	101015	35008
86.0	23341ca4e4830bee	61920	1796810	8448	32400	25552	0	101009	35008
86.0	23341ca4e4830bee	61920	1797001	8448	32400	25552	0	101017	35008
86.0	23341ca4e4830bee	61920	1797192	8448	32416	25552	0	101011	35216
86.0	23341ca4e4830bee	61920	1797383	8448	32416	25552	0	101005	35216
86.0	23341ca4e4830bee	61920	1797574	8448	32416	25552	0	101015	35216
86.0	23341ca4e4830bee	61920	1797765	8448	32416	25552	0	101011	35216
86.0	23341ca4e4830bee	61920	1797956	8448	32368	25520	0	101011	35104
86.0	23341ca4e4830bee	61920	1798137	8448	32368	25520	0	101011	35104
86.0	23341ca4e4830bee	61920	1798329	8448	32368	25520	0	101017	35104
86.0	23341ca4e4830bee	61920	1798520	8448	32368	25520	0	101015	34992
86.0	23341ca4e4830bee	61920	1798711	8448	32400	25552	0	101019	34992
86.0	23341ca4e4830bee	61920	1798902	8448	32400	25552	0	101017	34992
86.0	23341ca4e4830bee	61920	1799093	8448	32400	25552	0	101011	34992
86.0	23341ca4e4830bee	61920	1799284	8448	32400	25584	0	101019	35264
86.0	23341ca4e4830bee	61920	1799476	8448	32400	25584	0	101017	35264
86.0	23341ca4e4830bee	61920	1799657	8448	32400	25584	0	101011	35264
86.0	23341ca4e4830bee	61920	1799848	8448	32400	25584	0	101005	35264
86.0	23341ca4e4830bee	61920	1800090	8448	32416	25584	0	101011	35072
85.82	23341ca4e4830bee	61920	1800281	8448	32416	25584	0	101011	35072
86.0	23341ca4e4830bee	61920	1800473	8448	32416	25584	0	101019	35072
86.0	23341ca4e4830bee	61920	1800664	8448	32416	25584	0	101011	35312
86.0	23341ca4e4830bee	61920	1800855	8448	32432	25536	0	101009	35312
86.0	23341ca4e4830bee	61920	1801046	8448	32432	25536	0	101015	35312
86.0	23341ca4e4830bee	61920	1801237	8448	32432	25536	0	101007	35312
86.0	23341ca4e4830bee	61920	1801418	8448	32432	25536	0	101011	35040
86.0	23341ca4e4830bee	61920	1801609	8448	32432	25552	0	101005	35040
86.0	23341ca4e4830bee	61920	1801800	8448	32432	25552	0	101011	35040
86.0	23341ca4e4830bee	61920	1801992	8448	32432	25552	0	101009	35040
86.0	23341ca4e4830bee	61920	1802183	8448	32400	25536	0	101011	35024
86.0	23341ca4e4830bee	61920	1802382	8448	32400	25536	0	101005	35024
86.0	23341ca4e4830bee	61920	1802573	8448	32400	25536	0	101011	35024
86.0	23341ca4e4830bee	61920	1802769	8448	32400	25536	0	101007	35024
86.0	23341ca4e4830bee	61920	1802960	8448	32416	25552	0	101013	35296
86.0	23341ca4e4830bee	61920	1803151	8448	32416	25552	0	101011	35296
86.0	23341ca4e4830bee	61920	1803343	8448	32416	25552	0	101009	35296
86.0	23341ca4e4830bee	61920	1803534	8448	32416	25552	0	101005	35296
86.0	23341ca4e4830bee	61920	1803725	8448	32416	25536	0	101009	35056
86.0	23341ca4e4830bee	61920	1803947	8448	32416	25536	0	101015	35056
86.0	23341ca4e4830bee	61920	1804128	8448	32416	25536	0	101015	35056
86.0	23341ca4e4830bee	61920	1804319	8448	32432	25536	0	101019	35024
86.0	23341ca4e4830bee	61920	1804510	8448	32432	25504	0	101017	35024
86.0	23341ca4e4830bee	61920	1804701	8448	32432	25504	0	101015	35024
86.0	23341ca4e4830bee	61920	1804892	8448	32432	25504	0	101013	35024
86.0	23341ca4e4830bee	61936	1805084	8448	32400	25536	0	101005	34944
86.0	23341ca4e4830bee	61936	1805275	8448	32400	25536	0	101019	34944
86.0	23341ca4e4830bee	61936	1805466	8448	32400	25536	1	101011	34944
86.0	23341ca4e4830bee	61936	1805657	8448	32400	25536	1	101015	34944
86.0	23341ca4e4830bee	64352	1805838	8448	32448	25552	1	101011	34944
86.0	23341ca4e4830bee	64352	1806029	8448	32448	25552	0	101013	34944
86.0	23341ca4e4830bee	64352	1806220	8448	32448	25552	1	101007	34944
86.0	23341ca4e4830bee	64352	1806411	8448	32448	25552	1	101019	34944
86.0	23341ca4e4830bee	63296	1806602	8448	31568	25312	1	101011	35072
86.0	23341ca4e4830bee	63296	1806794	8448	31568	25312	1	101027	35072
86.0	23341ca4e4830bee	63296	1806985	8448	31568	25312	1	101011	35072
85.82	23341ca4e4830bee	64240	1807176	8448	31568	25312	1	101017	35296
85.82	23341ca4e4830bee	64240	1807368	8448	31776	25504	0	101007	35296
85.82	23341ca4e4830bee	64240	1807559	8448	31776	25504	1	101013	35296
85.82	23341ca4e4830bee	64240	1807791	8448	31776	25504	0	101019	35296
85.82	23341ca4e4830bee	64400	1807982	8448	30880	25808	1	101025	35216
85.82	23341ca4e4830bee	64400	1808173	8448	30880	25808	1	101015	35216
85.82	23341ca4e4830bee	64400	1808364	8448	30880	25808	1	101005	35216
85.82	23341ca4e4830bee	64400	1808560	8448	30880	25808	1	101011	35216
85.82	23341ca4e4830bee	64496	1808751	8576	30944	25664	1	101023	34960
85.82	23341ca4e4830bee	64496	1808942	8576	30944	25664	1	101007	34960
85.82	23341ca4e4830bee	64496	1809133	8576	30944	25664	0	101019	34960
85.82	23341ca4e4830bee	64496	1809324	8448	30944	25664	1	101017	34960
85.82	23341ca4e4830bee	64416	1809515	8448	31120	25648	1	101017	35072
85.82	23341ca4e4830bee	64416	1809706	8448	31120	25648	1	101011	35072
85.82	23341ca4e4830bee	64416	1809897	8448	31120	25648	1	101011	35072
85.82	23341ca4e4830bee	63504	1810079	8448	31120	25648	1	101013	35344
85.82	23341ca4e4830bee	63504	1810270	8448	31312	25456	1	101017	35344
85.82	23341ca4e4830bee	63504	1810461	8448	31312	25456	1	101017	35344
85.82	23341ca4e4830bee	63504	1810652	8448	31312	25456	1	101011	35344
85.82	23341ca4e4830bee	63648	1810843	8448	31216	25648	1	101013	35184
85.82	23341ca4e4830bee	63648	1811034	8448	31216	25648	1	101011	35184
85.82	23341ca4e4830bee	63648	1811226	8448	31216	25648	1	101011	35184
85.82	23341ca4e4830bee	63648	1811417	8448	31216	25648	0	101017	35184
85.82	23341ca4e4830bee	63664	1811655	8448	31008	25584	1	101011	35168
85.82	23341ca4e4830bee	63664	1811846	8448	31008	25584	1	101011	35168
85.82	23341ca4e4830bee	63664	1812037	8448	31008	25584	1	101011	35168
85.82	23341ca4e4830bee	63664	1812228	8448	31008	25584	1	101007	35344
85.82	23341ca4e4830bee	63632	1812418	8448	31136	25616	1	101015	35344
85.82	23341ca4e4830bee	63632	1812599	8448	31136	25616	1	101021	35344
85.82	23341ca4e4830bee	63632	1812790	8448	31136	25616	1	101021	35344
85.82	23341ca4e4830bee	63600	1812981	8448	31136	25616	1	101011	35024
85.82	23341ca4e4830bee	63600	1813172	8448	31104	25680	0	101011	35024
85.82	23341ca4e4830bee	63600	1813364	8448	31104	25680	0	101015	35024
85.82	23341ca4e4830bee	63600	1813555	8448	31104	25680	0	101017	35024
85.82	23341ca4e4830bee	63616	1813746	8448	31120	25664	0	101015	35184
85.82	23341ca4e4830bee	63616	1813937	8448	31120	25664	0	101011	35184
85.82	23341ca4e4830bee	63616	1814128	8448	31120	25664	0	101015	35184
85.82	23341ca4e4830bee	63616	1814320	8448	31120	25664	0	101021	35184
85.82	23341ca4e4830bee	63616	1814511	8448	31120	25648	0	101017	35168
85.82	23341ca4e4830bee	63616	1814702	8448	31120	25648	0	101013	35168
85.82	23341ca4e4830bee	63616	1814893	8448	31120	25648	0	101009	35168
85.82	23341ca4e4830bee	63616	1815084	8448	31120	25648	0	101015	35168
85.82	23341ca4e4830bee	63632	1815276	8448	31088	25712	0	101015	35120
85.82	23341ca4e4830bee	63632	1815522	8448	31088	25712	0	101025	35120
85.82	23341ca4e4830bee	63632	1815713	8448	31088	25712	0	101019	35120
85.82	23341ca4e4830bee	63632	1815904	8448	31120	25648	0	101019	35136
85.82	23341ca4e4830bee	63632	1816095	8448	31120	25648	0	101013	35136
85.82	23341ca4e4830bee	63632	1816286	8448	31120	25648	0	101007	35136
85.82	23341ca4e4830bee	63632	1816477	8448	31120	25648	0	101009	35136
85.82	23341ca4e4830bee	63632	1816668	8448	31104	25664	0	101015	35344
85.82	23341ca4e4830bee	63632	1816849	8448	31104	25664	0	101013	35344
85.82	23341ca4e4830bee	63632	1817041	8448	31104	25664	0	101013	35344
85.82	23341ca4e4830bee	63632	1817232	8448	31104	25664	0	101011	35344
85.82	23341ca4e4830bee	63648	1817426	8448	31104	25680	0	101013	35136
85.82	23341ca4e4830bee	63648	1817618	8448	31104	25680	0	101007	35136
85.82	23341ca4e4830bee	63648	1817809	8448	31104	25680	0	101019	35136
85.82	23341ca4e4830bee	63648	1818000	8448	31104	25680	0	101013	35136
85.82	23341ca4e4830bee	63632	1818191	8448	31056	25664	0	101007	35328
86.0	23341ca4e4830bee	63632	1818382	8448	31056	25664	0	101017	35328
85.82	23341ca4e4830bee	63632	1818574	8448	31056	25664	0	101007	35328
86.0	23341ca4e4830bee	63648	1818765	8448	31088	25664	0	101019	35088
85.82	23341ca4e4830bee	63648	1818956	8448	31088	25664	0	101011	35088
86.0	23341ca4e4830bee	63648	1819147	8448	31088	25664	0	101009	35088
85.82	23341ca4e4830bee	63648	1819372	8448	31088	25664	0	101011	35088
86.0	23341ca4e4830bee	63664	1819563	8448	31040	25696	0	101009	35008
86.0	23341ca4e4830bee	63664	1819754	8448	31040	25696	0	101017	35008
86.0	23341ca4e4830bee	63664	1819945	8448	31040	25696	0	101011	35008
85.82	23341ca4e4830bee	63664	1820136	8448	31040	25696	0	101013	35008
86.0	23341ca4e4830bee	63632	1820327	8448	31136	25664	0	101011	35168
86.0	23341ca4e4830bee	63632	1820518	8448	31136	25664	0	101003	35168
86.0	23341ca4e4830bee	63632	1820709	8448	31136	25664	0	101017	35168
86.0	23341ca4e4830bee	63632	1820900	8448	31136	25664	0	101011	35264
86.0	23341ca4e4830bee	63648	1821092	8448	31088	25664	0	101009	35264
86.0	23341ca4e4830bee	63648	1821283	8448	31088	25664	0	101011	35264
86.0	23341ca4e4830bee	63648	1821474	8448	31088	25664	0	101013	35264
86.0	23341ca4e4830bee	63680	1821665	8448	31088	25680	0	101005	34960
86.0	23341ca4e4830bee	63680	1821856	8448	31088	25680	0	101005	34960
86.0	23341ca4e4830bee	63680	1822047	8448	31088	25680	0	101013	34960
86.0	23341ca4e4830bee	63680	1822238	8448	31088	25680	0	101005	34960
86.0	23341ca4e4830bee	63680	1822420	8448	31040	25664	0	101007	35008
86.0	23341ca4e4830bee	63680	1822611	8448	31040	25664	0	101011	35008
86.0	23341ca4e4830bee	63680	1822802	8448	31040	25664	0	101011	35008
86.0	23341ca4e4830bee	63680	1822994	8448	31040	25664	0	101011	35008
86.0	23341ca4e4830bee	63680	1823236	8448	31072	25696	0	101009	35088
86.0	23341ca4e4830bee	63680	1823427	8448	31072	25696	0	101015	35088
86.0	23341ca4e4830bee	63680	1823619	8448	31072	25696	0	101015	35088
86.0	23341ca4e4830bee	63680	1823800	8576	31072	25696	0	101015	35264
86.0	23341ca4e4830bee	63680	1823991	8576	31056	25664	0	101003	35264
86.0	23341ca4e4830bee	63680	1824182	8576	31056	25664	0	101009	35264
86.0	23341ca4e4830bee	63680	1824373	8576	31056	25664	0	101009	35264
86.0	23341ca4e4830bee	63664	1824564	8448	31072	25680	0	101013	35296
86.0	23341ca4e4830bee	63664	1824755	8448	31072	25680	0	101015	35296
86.0	23341ca4e4830bee	63664	1824946	8448	31072	25680	0	101005	35296
86.0	23341ca4e4830bee	63664	1825137	8448	31072	25680	0	101015	35296
86.0	23341ca4e4830bee	63680	1825328	8576	31040	25696	0	101015	35088
86.0	23341ca4e4830bee	63680	1825520	8576	31040	25696	0	101011	35088
86.0	23341ca4e4830bee	63680	1825711	8576	31040	25696	0	101015	35088
86.0	23341ca4e4830bee	63680	1825902	8576	31040	25696	0	101013	35088
86.0	23341ca4e4830bee	63680	1826093	8448	31056	25680	0	101015	35264
86.0	23341ca4e4830bee	63680	1826284	8448	31056	25680	0	101013	35264
86.0	23341ca4e4830bee	63680	1826476	8448	31056	25680	0	101015	35264
86.0	23341ca4e4830bee	63680	1826667	8576	31056	25680	0	101019	35264
86.0	23341ca4e4830bee	63664	1826858	8576	31072	25680	0	101013	35104
86.0	23341ca4e4830bee	63664	1827093	8576	31072	25680	0	101007	35104
86.0	23341ca4e4830bee	63664	1827284	8576	31072	25680	0	101011	35104
86.0	23341ca4e4830bee	63680	1827475	8576	31072	25696	0	101017	35024
86.0	23341ca4e4830bee	63680	1827666	8576	31072	25696	0	101013	35024
86.0	23341ca4e4830bee	63680	1827857	8576	31072	25696	0	101011	35024
86.0	23341ca4e4830bee	63680	1828048	8576	31072	25696	1	101007	35024
86.0	23341ca4e4830bee	63712	1828239	8448	31024	25712	1	101007	34992
86.0	23341ca4e4830bee	63712	1828420	8448	31024	25712	1	101013	34992
86.0	23341ca4e4830bee	63712	1828612	8448	31024	25712	0	101019	34992
86.0	23341ca4e4830bee	63712	1828803	8576	31024	25712	0	101007	34992
86.0	23341ca4e4830bee	63728	1828994	8576	31072	25696	0	101017	35296
86.0	23341ca4e4830bee	63728	1829185	8576	31072	25696	0	101003	35296
86.0	23341ca4e4830bee	63728	1829376	8576	31072	25696	1	101003	35296
86.0	23341ca4e4830bee	63728	1829567	8448	31072	25696	1	101003	35328
86.0	23341ca4e4830bee	63840	1829758	8448	31008	25696	1	101011	35328
86.0	23341ca4e4830bee	63840	1829950	8448	31008	25696	1	101013	35328
86.0	23341ca4e4830bee	63840	1830131	8448	31008	25696	0	101005	35328
86.0	23341ca4e4830bee	63856	1830342	8576	31056	25696	0	101023	35216
86.0	23341ca4e4830bee	63856	1830533	8576	31056	25696	0	101003	35216
86.0	23341ca4e4830bee	63856	1830724	8576	31056	25696	1	101007	35216
86.0	23341ca4e4830bee	63856	1830968	8576	31056	25696	1	101011	35216
86.0	23341ca4e4830bee	63776	1831159	8448	31024	25600	1	101013	34976
86.0	23341ca4e4830bee	63776	1831350	8448	31024	25600	1	101011	34976
86.0	23341ca4e4830bee	63776	1831531	8448	31024	25600	1	101005	34976
86.0	23341ca4e4830bee	63776	1831722	8448	31024	25600	1	101011	34976
86.0	23341ca4e4830bee	64528	1831918	8448	30880	25744	1	101005	35072
86.0	23341ca4e4830bee	64528	1832109	8448	30880	25744	0	101013	35072
86.0	23341ca4e4830bee	64528	1832300	8448	30880	25744	1	101005	35072
86.0	23341ca4e4830bee	64672	1832481	8448	30880	25744	1	101009	35024
86.0	23341ca4e4830bee	64672	1832672	8448	30976	25728	1	101007	35024
86.0	23341ca4e4830bee	64672	1832869	8448	30976	25728	0	101007	35024
86.0	23341ca4e4830bee	64672	1833060	8448	30976	25728	1	101013	35024
86.0	23341ca4e4830bee	64688	1833251	8448	30928	25776	1	101015	34976
86.0	23341ca4e4830bee	64688	1833442	8448	30928	25776	1	101021	34976
86.0	23341ca4e4830bee	64688	1833634	8448	30928	25776	1	101011	34976
86.0	23341ca4e4830bee	64688	1833825	8448	30928	25776	1	101017	34976
86.0	23341ca4e4830bee	64704	1834016	8576	30896	25712	1	101011	35296
86.0	23341ca4e4830bee	64704	1834207	8576	30896	25712	0	101009	35296
86.0	23341ca4e4830bee	64704	1834398	8576	30896	25712	0	101015	35296
86.0	23341ca4e4830bee	64704	1834590	8576	30896	25712	0	101005	35296
86.0	23341ca4e4830bee	64704	1834811	8576	30976	25728	0	101009	34992
86.0	23341ca4e4830bee	64704	1835002	8576	30976	25728	0	101009	34992
86.0	23341ca4e4830bee	64704	1835194	8576	30976	25728	0	101015	34992
86.0	23341ca4e4830bee	64704	1835385	8576	30928	25728	0	101005	35056
86.0	23341ca4e4830bee	64704	1835576	8576	30928	25728	0	101009	35056
86.0	23341ca4e4830bee	64704	1835767	8576	30928	25728	0	101011	35056
86.0	23341ca4e4830bee	64704	1835958	8576	30928	25728	0	101011	35056
86.0	23341ca4e4830bee	64704	1836149	8448	30928	25696	0	101011	35232
86.0	23341ca4e4830bee	64704	1836340	8448	30928	25696	0	101009	35232
86.0	23341ca4e4830bee	64704	1836531	8448	30928	25696	0	101003	35232
86.0	23341ca4e4830bee	64704	1836722	8448	30928	25696	0	101003	35232
86.0	23341ca4e4830bee	64704	1836913	8576	30928	25712	0	101009	35328
86.0	23341ca4e4830bee	64704	1837104	8576	30928	25712	0	101009	35328
86.0	23341ca4e4830bee	64704	1837296	8576	30928	25712	0	101009	35328
86.0	23341ca4e4830bee	64704	1837487	8576	30928	25712	0	101003	35328
86.0	23341ca4e4830bee	64720	1837678	8576	30944	25712	0	101009	35136
86.0	23341ca4e4830bee	64720	1837870	8576	30944	25712	0	101009	35136
86.0	23341ca4e4830bee	64720	1838061	8576	30944	25712	0	101007	35136
86.0	23341ca4e4830bee	64704	1838242	8576	30944	25712	0	100997	35040
86.0	23341ca4e4830bee	64704	1838433	8576	30928	25744	0	101005	35040
86.0	23341ca4e4830bee	64704	1838683	8576	30928	25744	0	101009	35040
86.0	23341ca4e4830bee	64704	1838874	8576	30928	25744	0	101023	35040
86.0	23341ca4e4830bee	64720	1839065	8576	30912	25712	0	101011	35344
86.0	23341ca4e4830bee	64720	1839256	8576	30912	25712	0	101019	35344
86.0	23341ca4e4830bee	64720	1839447	8576	30912	25712	0	101007	35344
86.0	23341ca4e4830bee	64720	1839638	8576	30912	25712	0	101003	35344
86.0	23341ca4e4830bee	64720	1839829	8448	30928	25728	0	101009	35312
86.0	23341ca4e4830bee	64720	1840020	8448	30928	25728	0	101005	35312
86.0	23341ca4e4830bee	64720	1840211	8448	30928	25728	0	101017	35312
86.0	23341ca4e4830bee	64720	1840402	8576	30928	25728	0	101005	35024
86.0	23341ca4e4830bee	64736	1840593	8576	30896	25744	0	101011	35024
86.18	23341ca4e4830bee	64736	1840784	8576	30896	25744	0	101009	35024
86.0	23341ca4e4830bee	64736	1840975	8576	30896	25744	0	101009	35024
86.0	23341ca4e4830bee	64736	1841166	8576	30880	25744	0	101011	35072
86.0	23341ca4e4830bee	64736	1841358	8576	30880	25728	0	101021	35072
86.18	23341ca4e4830bee	64736	1841549	8576	30880	25728	0	101015	35072
86.18	23341ca4e4830bee	64736	1841740	8576	30880	25728	0	101009	35072
86.18	23341ca4e4830bee	64736	1841931	8576	30896	25728	1	101009	34976
86.18	23341ca4e4830bee	64736	1842112	8576	30896	25728	1	101009	34976
86.18	23341ca4e4830bee	64736	1842304	8576	30896	25728	0	101007	34976
86.18	23341ca4e4830bee	64736	1842551	8576	30896	25728	1	101009	34976
86.18	23341ca4e4830bee	64688	1842742	8576	30992	25776	1	101013	35024
86.18	23341ca4e4830bee	64688	1842923	8576	30992	25776	1	101019	35024
86.0	23341ca4e4830bee	64688	1843114	8576	30992	25776	0	101005	35024
86.0	23341ca4e4830bee	64544	1843305	8576	30992	25776	1	100999	35008
86.0	23341ca4e4830bee	64544	1843496	8576	32320	25536	1	101017	35008
86.0	23341ca4e4830bee	64544	1843687	8576	32320	25536	1	101003	35008
86.0	23341ca4e4830bee	64544	1843878	8576	32320	25536	1	101011	35008
86.0	23341ca4e4830bee	62928	1844070	8576	32400	25456	0	101017	35280
86.0	23341ca4e4830bee	62928	1844261	8576	32400	25456	1	101011	35280
86.0	23341ca4e4830bee	62928	1844452	8576	32400	25456	1	101011	35280
86.0	23341ca4e4830bee	62928	1844633	8576	32400	25456	1	101011	35280
86.0	23341ca4e4830bee	62000	1844824	8576	32384	25488	0	101011	35216
86.0	23341ca4e4830bee	62000	1845015	8576	32384	25488	1	101011	35216
86.0	23341ca4e4830bee	62000	1845206	8576	32384	25488	1	101013	35216
86.0	23341ca4e4830bee	62000	1845398	8576	32384	25488	1	101011	35216
86.0	23341ca4e4830bee	61968	1845589	8576	32368	25440	1	101009	35072
86.0	23341ca4e4830bee	61968	1845780	8576	32368	25440	1	101005	35072
86.0	23341ca4e4830bee	61968	1845971	8576	32368	25440	1	101017	35072
86.0	23341ca4e4830bee	61968	1846152	8576	32368	25440	0	101005	35072
86.0	23341ca4e4830bee	61952	1846403	8576	32384	25456	0	101005	35200
86.0	23341ca4e4830bee	61952	1846594	8576	32384	25456	0	101011	35200
86.0	23341ca4e4830bee	61952	1846785	8576	32384	25456	0	101009	35200
86.18	23341ca4e4830bee	61936	1846976	8576	32384	25472	0	101015	35280
86.0	23341ca4e4830bee	61936	1847167	8576	32384	25472	0	101011	35280
86.0	23341ca4e4830bee	61936	1847358	8576	32384	25472	0	101009	35280
86.0	23341ca4e4830bee	61936	1847550	8576	32384	25472	0	101015	35280
86.18	23341ca4e4830bee	61936	1847741	8448	32384	25456	0	101015	35152
86.0	23341ca4e4830bee	61936	1847932	8448	32384	25456	0	101005	35152
86.0	23341ca4e4830bee	61936	1848113	8448	32384	25456	0	101019	35152
86.0	23341ca4e4830bee	61936	1848304	8448	32384	25456	0	101013	35152
86.0	23341ca4e4830bee	61936	1848495	8448	32416	25456	0	101015	34992
86.0	23341ca4e4830bee	61936	1848686	8448	32416	25456	0	101015	34992
86.0	23341ca4e4830bee	61936	1848877	8448	32416	25456	0	101003	34992
86.0	23341ca4e4830bee	61936	1849068	8576	32416	25456	0	101017	35248
86.0	23341ca4e4830bee	61920	1849260	8576	32352	25472	0	101017	35248
86.18	23341ca4e4830bee	61920	1849451	8576	32352	25472	0	101015	35248
86.18	23341ca4e4830bee	61920	1849642	8576	32352	25472	0	101009	35248
86.18	23341ca4e4830bee	61920	1849823	8576	32352	25472	0	101015	35232
86.18	23341ca4e4830bee	61920	1850015	8576	32384	25440	0	101013	35232
86.0	23341ca4e4830bee	61920	1850248	8576	32384	25440	0	101011	35232
86.0	23341ca4e4830bee	61920	1850439	8576	32384	25440	0	101005	35232
86.0	23341ca4e4830bee	61920	1850630	8576	32432	25440	0	101005	35328
86.18	23341ca4e4830bee	61920	1850821	8576	32432	25440	0	101015	35328
86.18	23341ca4e4830bee	61920	1851012	8576	32432	25440	0	101013	35328
86.0	23341ca4e4830bee	61920	1851193	8576	32432	25440	0	101011	35328
86.0	23341ca4e4830bee	61904	1851384	8448	32384	25440	0	101015	35296
86.0	23341ca4e4830bee	61904	1851576	8448	32384	25440	0	101017	35296
86.0	23341ca4e4830bee	61904	1851767	8448	32384	25440	0	101005	35296
86.0	23341ca4e4830bee	61904	1851958	8448	32384	25440	0	101013	35344
86.0	23341ca4e4830bee	61920	1852149	8448	32448	25456	0	101009	35344
86.0	23341ca4e4830bee	61920	1852340	8448	32448	25456	0	101013	35344
86.0	23341ca4e4830bee	61920	1852531	8448	32448	25456	0	101003	35344
86.0	23341ca4e4830bee	61904	1852722	8448	32416	25456	0	101011	35248
86.0	23341ca4e4830bee	61904	1852903	8448	32416	25456	0	101009	35248
86.0	23341ca4e4830bee	61904	1853095	8448	32416	25456	0	101003	35248
86.0	23341ca4e4830bee	61904	1853286	8448	32416	25456	0	101009	35248
86.0	23341ca4e4830bee	61904	1853477	8576	32400	25440	0	101011	35056
86.0	23341ca4e4830bee	61904	1853668	8576	32400	25440	0	101013	35056
86.0	23341ca4e4830bee	61904	1853859	8576	32400	25440	0	101011	35056
86.0	23341ca4e4830bee	61904	1854100	8576	32400	25440	0	101017	35056
86.0	23341ca4e4830bee	61904	1854291	8576	32400	25440	0	101011	34960
86.0	23341ca4e4830bee	61904	1854482	8576	32400	25440	0	101013	34960
86.0	23341ca4e4830bee	61904	1854673	8576	32400	25440	0	101007	34960
86.0	23341ca4e4830bee	61904	1854864	8576	32400	25440	0	101019	35280
86.0	23341ca4e4830bee	61904	1855055	8576	32400	25472	0	101019	35280
86.0	23341ca4e4830bee	61904	1855246	8576	32400	25472	0	101009	35280
86.0	23341ca4e4830bee	61904	1855447	8576	32400	25472	0	101017	35280
86.0	23341ca4e4830bee	61904	1855638	8576	32400	25440	0	101007	35216
86.0	23341ca4e4830bee	61904	1855829	8576	32400	25440	0	101017	35216
86.0	23341ca4e4830bee	61904	1856021	8576	32400	25440	0	101013	35216
86.0	23341ca4e4830bee	61904	1856212	8576	32400	25440	0	100997	35216
86.0	23341ca4e4830bee	61904	1856403	8448	32400	25488	0	101015	35344
86.0	23341ca4e4830bee	61904	1856584	8448	32400	25488	0	101009	35344
86.0	23341ca4e4830bee	61904	1856775	8448	32400	25488	0	101015	35344
86.0	23341ca4e4830bee	61904	1856966	8448	32400	25488	0	101009	35344
86.0	23341ca4e4830bee	61904	1857157	8576	32400	25456	0	101009	35056
86.0	23341ca4e4830bee	61904	1857349	8576	32400	25456	0	101007	35056
86.0	23341ca4e4830bee	61904	1857540	8576	32400	25456	0	101019	35056
86.0	23341ca4e4830bee	61904	1857731	8448	32400	25456	0	101019	35056
86.0	23341ca4e4830bee	61904	1857964	8448	32416	25488	0	101009	35136
86.0	23341ca4e4830bee	61904	1858155	8448	32416	25488	0	101017	35136
86.0	23341ca4e4830bee	61904	1858346	8448	32416	25488	0	101015	35136
86.0	23341ca4e4830bee	61904	1858537	8576	32432	25456	0	101011	35248
86.0	23341ca4e4830bee	61904	1858729	8576	32432	25456	0	101009	35248
86.0	23341ca4e4830bee	61904	1858920	8576	32432	25456	0	101009	35248
86.0	23341ca4e4830bee	61904	1859111	8576	32432	25456	0	101019	35248
86.0	23341ca4e4830bee	61904	1859302	8448	32496	25456	0	101009	35152
86.0	23341ca4e4830bee	61904	1859493	8448	32496	25456	0	101003	35152
86.0	23341ca4e4830bee	61904	1859674	8448	32496	25456	0	101003	35152
86.0	23341ca4e4830bee	61904	1859866	8448	32496	25456	0	101009	35152
86.0	23341ca4e4830bee	61904	1860057	8448	32432	25456	0	101007	35296
86.0	23341ca4e4830bee	61904	1860248	8448	32432	25456	0	101011	35296
86.0	23341ca4e4830bee	61904	1860439	8448	32432	25456	0	101009	35296
86.0	23341ca4e4830bee	61904	1860630	8448	32432	25456	0	101019	35264
86.0	23341ca4e4830bee	61904	1860821	8448	32448	25440	0	101003	35264
86.0	23341ca4e4830bee	61904	1861023	8448	32448	25440	0	101007	35264
86.0	23341ca4e4830bee	61904	1861204	8448	32448	25440	0	101003	35264
86.0	23341ca4e4830bee	61904	1861396	8576	32464	25440	0	101009	35216
86.0	23341ca4e4830bee	61904	1861587	8576	32464	25424	0	101009	35216
86.0	23341ca4e4830bee	61904	1861819	8576	32464	25424	0	101005	35216
86.0	23341ca4e4830bee	61904	1862010	8576	32464	25424	0	101013	35216
86.0	23341ca4e4830bee	61904	1862201	8448	32368	25440	0	101017	35104
86.0	23341ca4e4830bee	61904	1862392	8448	32368	25440	0	101011	35104
86.0	23341ca4e4830bee	61904	1862583	8448	32368	25440	0	101009	35104
86.0	23341ca4e4830bee	61904	1862774	8576	32368	25440	0	101011	35104
86.0	23341ca4e4830bee	61904	1862970	8576	32416	25424	0	101015	35280
86.0	23341ca4e4830bee	61904	1863174	8576	32416	25424	0	101003	35280
86.0	23341ca4e4830bee	61904	1863355	8576	32416	25424	0	101011	35280
86.0	23341ca4e4830bee	61904	1863546	8576	32416	25424	0	101009	35328
86.0	23341ca4e4830bee	61904	1863740	8576	32416	25440	0	101013	35328
86.0	23341ca4e4830bee	61904	1863931	8576	32416	25440	0	101011	35328
86.0	23341ca4e4830bee	61904	1864123	8576	32416	25440	0	101011	35328
86.0	23341ca4e4830bee	61904	1864314	8576	32416	25440	0	101005	35120
86.0	23341ca4e4830bee	61904	1864495	8576	32416	25440	0	101005	35120
86.0	23341ca4e4830bee	61904	1864686	8576	32416	25440	0	101007	35120
86.0	23341ca4e4830bee	61904	1864877	8576	32416	25440	0	101019	35120
86.0	23341ca4e4830bee	61904	1865069	8448	32432	25424	0	101003	35024
86.0	23341ca4e4830bee	61904	1865260	8448	32432	25424	0	101005	35024
86.0	23341ca4e4830bee	61904	1865451	8448	32432	25424	0	101011	35024
86.0	23341ca4e4830bee	61904	1865686	8576	32432	25424	0	100997	35056
86.0	23341ca4e4830bee	61904	1865877	8576	32384	25488	0	101015	35056
86.0	23341ca4e4830bee	61904	1866068	8576	32384	25488	0	101013	35056
86.0	23341ca4e4830bee	61904	1866259	8576	32384	25488	0	101015	35056
86.0	23341ca4e4830bee	61904	1866450	8448	32464	25488	0	101013	35312
86.0	23341ca4e4830bee	61904	1866642	8448	32464	25440	0	101007	35312
86.0	23341ca4e4830bee	61904	1866833	8448	32464	25440	0	101013	35312
86.0	23341ca4e4830bee	61904	1867024	8448	32464	25440	0	101007	35312
86.0	23341ca4e4830bee	61904	1867215	8448	32432	25456	0	101007	35360
86.0	23341ca4e4830bee	61904	1867406	8448	32432	25456	0	101013	35360
86.0	23341ca4e4830bee	61904	1867597	8448	32432	25456	0	101013	35360
86.0	23341ca4e4830bee	61904	1867788	8448	32432	25456	0	101013	35360
86.0	23341ca4e4830bee	61904	1867979	8448	32432	25456	0	101013	35136
86.0	23341ca4e4830bee	61904	1868170	8448	32432	25456	0	101013	35136
86.0	23341ca4e4830bee	61904	1868362	8448	32432	25456	0	101003	35136
86.0	23341ca4e4830bee	61904	1868553	8576	32432	25456	0	101015	35136
86.0	23341ca4e4830bee	61904	1868744	8576	32432	25456	0	101009	35152
86.0	23341ca4e4830bee	61904	1868925	8576	32432	25456	0	101009	35152
86.0	23341ca4e4830bee	61904	1869117	8576	32432	25456	0	101009	35152
86.0	23341ca4e4830bee	61904	1869308	8448	32432	25456	0	101009	35232
86.0	23341ca4e4830bee	61904	1869541	8448	32448	25472	0	101015	35232
86.0	23341ca4e4830bee	61904	1869732	8448	32448	25472	0	101009	35232
86.0	23341ca4e4830bee	61904	1869923	8448	32448	25472	0	101003	35232
86.0	23341ca4e4830bee	61904	1870114	8576	32432	25456	0	101009	35008
86.0	23341ca4e4830bee	61904	1870295	8576	32432	25456	0	101009	35008
86.0	23341ca4e4830bee	61904	1870486	8576	32432	25456	0	101005	35008
86.0	23341ca4e4830bee	61904	1870678	8576	32432	25456	0	101011	35008
86.0	23341ca4e4830bee	61904	1870869	8576	32432	25456	0	101011	35024
86.0	23341ca4e4830bee	61904	1871060	8576	32432	25456	0	101003	35024
86.0	23341ca4e4830bee	61904	1871251	8576	32432	25456	0	101009	35024
86.0	23341ca4e4830bee	61904	1871450	8576	32432	25456	0	101009	35024
86.0	23341ca4e4830bee	61904	1871641	8576	32416	25440	0	101005	35280
86.0	23341ca4e4830bee	61904	1871833	8576	32416	25440	0	101003	35280
86.0	23341ca4e4830bee	61904	1872024	8576	32416	25440	0	101005	35280
86.0	23341ca4e4830bee	61904	1872215	8576	32416	25440	0	101009	35280
86.0	23341ca4e4830bee	61904	1872396	8576	32384	25488	0	101009	35280
86.0	23341ca4e4830bee	61904	1872587	8576	32384	25488	0	101011	35280
86.0	23341ca4e4830bee	61904	1872779	8576	32384	25488	0	101013	35280
86.0	23341ca4e4830bee	61904	1872970	8448	32432	25440	0	101005	35296
86.0	23341ca4e4830bee	61904	1873161	8448	32432	25440	0	101009	35296
86.0	23341ca4e4830bee	61904	1873403	8448	32432	25440	0	101009	35296
86.0	23341ca4e4830bee	61904	1873594	8448	32432	25440	0	101007	35296
86.0	23341ca4e4830bee	61904	1873785	8576	32432	25456	0	101003	34928
86.0	23341ca4e4830bee	61904	1873966	8576	32432	25456	0	101007	34928
86.0	23341ca4e4830bee	61904	1874157	8576	32432	25456	0	101003	34928
86.0	23341ca4e4830bee	61904	1874348	8576	32432	25456	0	101011	34928
86.0	23341ca4e4830bee	61904	1874539	8576	32432	25440	0	101011	35136
86.0	23341ca4e4830bee	61904	1874730	8576	32432	25440	0	101005	35136
86.0	23341ca4e4830bee	61904	1874922	8576	32432	25440	0	101003	35136
86.0	23341ca4e4830bee	61904	1875113	8576	32432	25440	0	101015	35008
86.0	23341ca4e4830bee	61904	1875304	8576	32416	25472	0	101011	35008
86.0	23341ca4e4830bee	61904	1875495	8576	32416	25472	0	101009	35008
86.0	23341ca4e4830bee	61904	1875676	8576	32416	25472	0	101009	35008
86.0	23341ca4e4830bee	61904	1875868	8448	32416	25456	0	101013	34992
86.0	23341ca4e4830bee	61904	1876059	8448	32416	25456	0	101011	34992
86.0	23341ca4e4830bee	61904	1876250	8448	32416	25456	0	101009	34992
86.0	23341ca4e4830bee	61904	1876441	8448	32416	25456	0	101007	34992
86.0	23341ca4e4830bee	61904	1876632	8448	32400	25440	0	101007	35328
86.0	23341ca4e4830bee	61904	1876824	8448	32400	25440	0	101013	35328
86.0	23341ca4e4830bee	61904	1877015	8448	32400	25440	0	101013	35328
86.0	23341ca4e4830bee	61904	1877248	8576	32400	25440	0	101005	34992
86.0	23341ca4e4830bee	61904	1877443	8576	32400	25488	0	101013	34992
86.0	23341ca4e4830bee	61904	1877634	8576	32400	25488	0	101005	34992
86.0	23341ca4e4830bee	61904	1877825	8576	32400	25488	0	101009	34992
86.0	23341ca4e4830bee	61904	1878016	8576	32448	25456	0	101015	35168
86.0	23341ca4e4830bee	61904	1878207	8576	32448	25456	0	101009	35168
86.0	23341ca4e4830bee	61904	1878403	8576	32448	25456	0	101017	35168
86.0	23341ca4e4830bee	61904	1878594	8576	32448	25456	0	101009	35168
86.0	23341ca4e4830bee	61904	1878785	8576	32432	25472	0	101003	35296
86.0	23341ca4e4830bee	61904	1878966	8576	32432	25472	0	100999	35296
86.0	23341ca4e4830bee	61904	1879157	8576	32432	25472	0	101015	35296
86.0	23341ca4e4830bee	61904	1879349	8576	32432	25472	0	101011	35296
86.0	23341ca4e4830bee	61904	1879540	8448	32432	25472	0	101009	35104
86.0	23341ca4e4830bee	61904	1879731	8448	32432	25472	0	101005	35104
86.0	23341ca4e4830bee	61904	1879922	8448	32432	25472	0	101017	35104
86.0	23341ca4e4830bee	61904	1880118	8448	32432	25472	0	101013	35104
86.0	23341ca4e4830bee	61904	1880309	8448	32432	25424	0	101015	35040
86.0	23341ca4e4830bee	61904	1880500	8448	32432	25424	0	101007	35040
86.0	23341ca4e4830bee	61904	1880691	8448	32432	25424	0	101009	35040
86.0	23341ca4e4830bee	61904	1880883	8448	32432	25424	0	101017	35200