Digit_temp	id	light	timestamp	acc_z	acc_y	acc_x	motion	pressure	humid
86.18	23341ca4e4830bee	63424	2262065	8576	31232	31424	0	101013	34992
86.0	23341ca4e4830bee	63424	2262257	8576	31232	31424	0	101011	34992
86.0	23341ca4e4830bee	63424	2262449	8576	31232	31424	0	101011	34992
86.0	23341ca4e4830bee	63424	2262640	8576	31232	31424	0	101003	34992
86.18	23341ca4e4830bee	63424	2262831	8576	31200	31424	0	101019	35280
86.18	23341ca4e4830bee	63424	2263022	8576	31200	31424	0	101009	35280
86.18	23341ca4e4830bee	63424	2263213	8576	31200	31424	0	101015	35280
86.18	23341ca4e4830bee	63424	2263404	8576	31200	31424	0	101009	35280
86.18	23341ca4e4830bee	63424	2263595	8576	31200	31440	0	101007	35280
86.0	23341ca4e4830bee	63424	2263786	8576	31200	31440	0	101011	35280
86.18	23341ca4e4830bee	63424	2263977	8576	31200	31440	0	101015	35280
86.18	23341ca4e4830bee	63424	2264168	8576	31200	31440	0	101015	35072
86.0	23341ca4e4830bee	63424	2264359	8576	31232	31440	0	101005	35072
86.18	23341ca4e4830bee	63424	2264550	8576	31232	31440	0	101009	35072
86.18	23341ca4e4830bee	63424	2264742	8576	31232	31440	0	101009	35072
86.18	23341ca4e4830bee	63424	2264933	8576	31232	31424	0	101013	35008
86.18	23341ca4e4830bee	63424	2265124	8576	31232	31424	0	101003	35008
86.18	23341ca4e4830bee	63424	2265315	8576	31232	31424	0	101013	35008
86.18	23341ca4e4830bee	63424	2265506	8576	31232	31424	0	101013	35008
86.18	23341ca4e4830bee	63424	2265687	8576	31216	31440	0	101007	35248
86.18	23341ca4e4830bee	63424	2265928	8576	31216	31440	0	101007	35248
86.18	23341ca4e4830bee	63424	2266119	8576	31216	31440	0	101013	35248
86.18	23341ca4e4830bee	63424	2266310	8576	31216	31440	0	101009	35024
86.18	23341ca4e4830bee	63424	2266501	8576	31216	31456	0	101007	35024
86.18	23341ca4e4830bee	63424	2266702	8576	31216	31456	0	101003	35024
86.18	23341ca4e4830bee	63424	2266893	8576	31216	31456	0	101003	35024
86.18	23341ca4e4830bee	63424	2267085	8576	31216	31424	0	101009	35296
86.18	23341ca4e4830bee	63424	2267276	8576	31216	31424	0	101001	35296
86.18	23341ca4e4830bee	63424	2267467	8576	31216	31424	0	101013	35296
86.18	23341ca4e4830bee	63424	2267648	8576	31216	31424	0	101011	35296
86.18	23341ca4e4830bee	63424	2267839	8576	31200	31408	0	101007	34992
86.18	23341ca4e4830bee	63424	2268030	8576	31200	31408	0	101013	34992
86.18	23341ca4e4830bee	63424	2268221	8576	31200	31408	0	101015	34992
86.18	23341ca4e4830bee	63424	2268412	8576	31200	31408	0	101007	34992
86.18	23341ca4e4830bee	63424	2268603	8576	31232	31424	0	101013	34976
86.18	23341ca4e4830bee	63424	2268806	8576	31232	31424	0	101013	34976
86.18	23341ca4e4830bee	63424	2268987	8576	31232	31424	0	101007	34976
86.18	23341ca4e4830bee	63424	2269178	8576	31232	31424	0	101007	34976
86.18	23341ca4e4830bee	63424	2269370	8576	31200	31456	0	101007	35344
86.18	23341ca4e4830bee	63424	2269561	8576	31200	31456	0	101001	35344
86.18	23341ca4e4830bee	63424	2269801	8576	31200	31456	0	101001	35344
86.18	23341ca4e4830bee	63424	2269992	8576	31216	31424	0	101007	35008
86.18	23341ca4e4830bee	63424	2270183	8576	31216	31424	0	101003	35008
86.18	23341ca4e4830bee	63424	2270375	8576	31216	31424	0	101011	35008
86.18	23341ca4e4830bee	63424	2270566	8576	31216	31424	0	101005	35008
86.18	23341ca4e4830bee	63424	2270757	8576	31232	31440	0	101005	35040
86.18	23341ca4e4830bee	63424	2270938	8576	31232	31440	0	101007	35040
86.18	23341ca4e4830bee	63424	2271129	8576	31232	31440	0	101007	35040
86.18	23341ca4e4830bee	63424	2271320	8576	31232	31440	0	101007	35040
86.18	23341ca4e4830bee	63424	2271511	8576	31200	31440	0	101005	35056
86.18	23341ca4e4830bee	63424	2271710	8576	31200	31440	0	101005	35056
86.18	23341ca4e4830bee	63424	2271901	8576	31200	31440	0	101001	35056
86.18	23341ca4e4830bee	63424	2272092	8576	31200	31440	0	101013	35088
86.18	23341ca4e4830bee	63424	2272284	8576	31184	31440	0	101011	35088
86.18	23341ca4e4830bee	63424	2272475	8576	31184	31440	0	101007	35088
86.18	23341ca4e4830bee	63424	2272666	8576	31184	31440	0	101003	35088
86.18	23341ca4e4830bee	63424	2272857	8576	31216	31440	0	101007	35216
86.18	23341ca4e4830bee	63424	2273038	8576	31216	31392	0	101007	35216
86.18	23341ca4e4830bee	63424	2273230	8576	31216	31392	0	101015	35216
86.18	23341ca4e4830bee	63424	2273421	8576	31216	31392	0	101011	35216
86.18	23341ca4e4830bee	63424	2273662	8576	31216	31456	0	101011	35232
86.18	23341ca4e4830bee	63424	2273853	8576	31216	31456	0	101009	35232
86.18	23341ca4e4830bee	63424	2274044	8576	31216	31456	0	101009	35232
86.18	23341ca4e4830bee	63424	2274235	8576	31216	31456	0	101009	35232
86.18	23341ca4e4830bee	63424	2274426	8576	31232	31472	0	101009	35104
86.18	23341ca4e4830bee	63424	2274617	8576	31232	31472	0	101009	35104
86.18	23341ca4e4830bee	63424	2274798	8576	31232	31472	0	101003	35104
86.18	23341ca4e4830bee	63424	2274989	8576	31232	31472	0	101009	34960
86.18	23341ca4e4830bee	63424	2275180	8576	31168	31456	0	101015	34960
86.18	23341ca4e4830bee	63424	2275372	8576	31168	31456	0	101009	34960
86.18	23341ca4e4830bee	63424	2275563	8576	31168	31456	0	101009	34960
86.18	23341ca4e4830bee	63424	2275754	8576	31216	31424	0	101003	35104
86.18	23341ca4e4830bee	63424	2275945	8576	31216	31424	0	101015	35104
86.18	23341ca4e4830bee	63424	2276136	8576	31216	31424	0	101005	35104
86.18	23341ca4e4830bee	63424	2276327	8576	31216	31424	0	101007	35104
86.18	23341ca4e4830bee	63424	2276508	8576	31200	31456	0	101015	35056
86.18	23341ca4e4830bee	63424	2276700	8576	31200	31456	0	101015	35056
86.18	23341ca4e4830bee	63424	2276891	8576	31200	31456	0	101009	35056
86.18	23341ca4e4830bee	63424	2277082	8576	31200	31456	0	101009	35056
86.18	23341ca4e4830bee	63424	2277273	8576	31168	31456	0	101003	35040
86.18	23341ca4e4830bee	63424	2277517	8576	31168	31456	0	101013	35040
86.18	23341ca4e4830bee	63424	2277708	8576	31168	31456	0	101015	35040
86.18	23341ca4e4830bee	63424	2277889	8576	31168	31456	0	101013	35328
86.18	23341ca4e4830bee	63424	2278080	8576	31216	31424	0	101019	35328
86.18	23341ca4e4830bee	63424	2278271	8576	31216	31424	0	101003	35328
86.18	23341ca4e4830bee	63424	2278462	8576	31216	31424	0	101017	35328
86.18	23341ca4e4830bee	63424	2278654	8576	31184	31472	0	101015	35072
86.18	23341ca4e4830bee	63424	2278845	8576	31184	31472	0	101025	35072
86.18	23341ca4e4830bee	63424	2279036	8576	31184	31472	0	101015	35072
86.18	23341ca4e4830bee	63424	2279227	8576	31184	31472	0	101023	35072
86.18	23341ca4e4830bee	63424	2279418	8576	31200	31440	0	101009	35200
86.18	23341ca4e4830bee	63424	2279599	8576	31200	31440	0	101017	35200
86.18	23341ca4e4830bee	63424	2279790	8576	31200	31440	0	101003	35200
86.18	23341ca4e4830bee	63424	2279981	8576	31200	31440	0	101013	35200
86.18	23341ca4e4830bee	63424	2280173	8576	31200	31472	0	101007	35248
86.18	23341ca4e4830bee	63424	2280384	8576	31200	31472	0	101013	35248
86.18	23341ca4e4830bee	63424	2280575	8576	31200	31472	0	101007	35248
86.18	23341ca4e4830bee	63424	2280766	8576	31200	31472	0	101013	35024
86.18	23341ca4e4830bee	63424	2280957	8576	31216	31440	0	101013	35024
86.18	23341ca4e4830bee	63424	2281148	8576	31216	31440	0	101013	35024
86.18	23341ca4e4830bee	63424	2281370	8576	31216	31440	0	101003	35024
86.18	23341ca4e4830bee	63424	2281561	8576	31216	31440	0	101007	35040
86.18	23341ca4e4830bee	63424	2281752	8576	31216	31440	0	101003	35040
86.18	23341ca4e4830bee	63424	2281943	8576	31216	31440	0	101001	35040
86.18	23341ca4e4830bee	63424	2282134	8576	31216	31440	0	101011	35040
86.18	23341ca4e4830bee	63424	2282325	8576	31184	31456	0	101011	35088
86.18	23341ca4e4830bee	63424	2282516	8576	31184	31456	0	101007	35088
86.18	23341ca4e4830bee	63424	2282707	8576	31184	31456	0	101011	35088
86.18	23341ca4e4830bee	63424	2282906	8576	31184	31456	0	101017	35088
86.18	23341ca4e4830bee	63424	2283097	8576	31216	31424	0	101011	35104
86.18	23341ca4e4830bee	63424	2283288	8576	31216	31424	0	101005	35104
86.18	23341ca4e4830bee	63424	2283469	8576	31216	31424	0	101005	35104
86.18	23341ca4e4830bee	63424	2283661	8576	31216	31424	0	101017	35296
86.18	23341ca4e4830bee	63424	2283852	8576	31216	31440	0	101011	35296
86.18	23341ca4e4830bee	63424	2284043	8576	31216	31440	0	101009	35296
86.18	23341ca4e4830bee	63424	2284234	8576	31216	31440	0	101011	35296
86.18	23341ca4e4830bee	63424	2284425	8576	31200	31440	0	101007	35168
86.18	23341ca4e4830bee	63424	2284617	8576	31200	31440	0	101011	35168
86.18	23341ca4e4830bee	63424	2284808	8576	31200	31440	0	101005	35168
86.18	23341ca4e4830bee	63424	2284999	8576	31200	31440	0	101005	35168
86.18	23341ca4e4830bee	63424	2285229	8576	31200	31440	0	101009	35136
86.18	23341ca4e4830bee	63424	2285410	8576	31200	31440	0	101005	35136
86.18	23341ca4e4830bee	63424	2285601	8576	31200	31440	0	101003	35136
86.18	23341ca4e4830bee	63424	2285792	8576	31200	31440	0	101009	35136
86.18	23341ca4e4830bee	63424	2285984	8576	31200	31472	0	101009	35216
86.18	23341ca4e4830bee	63424	2286175	8576	31200	31472	0	101005	35216
86.18	23341ca4e4830bee	63424	2286366	8576	31200	31472	0	101009	35216
86.18	23341ca4e4830bee	63424	2286557	8576	31200	31472	0	100997	35040
86.36	23341ca4e4830bee	63424	2286748	8576	31216	31424	0	101009	35040
86.18	23341ca4e4830bee	63424	2286939	8576	31216	31424	0	101009	35040
86.18	23341ca4e4830bee	63424	2287120	8576	31216	31424	0	101009	35040
86.18	23341ca4e4830bee	63424	2287311	8576	31200	31456	0	101003	34960
86.18	23341ca4e4830bee	63424	2287502	8576	31200	31456	0	101011	34960
86.18	23341ca4e4830bee	63424	2287693	8576	31200	31456	0	101009	34960
86.18	23341ca4e4830bee	63424	2287885	8576	31200	31456	0	101011	34960
86.18	23341ca4e4830bee	63424	2288076	8576	31184	31456	0	101011	35152
86.18	23341ca4e4830bee	63424	2288267	8576	31184	31456	0	101009	35152
86.18	23341ca4e4830bee	63424	2288458	8576	31184	31456	0	101015	35152
86.18	23341ca4e4830bee	63424	2288649	8576	31184	31456	0	101011	35152
86.18	23341ca4e4830bee	63424	2288841	8576	31200	31424	0	101015	35120
86.18	23341ca4e4830bee	63424	2289082	8576	31200	31424	0	101015	35120
86.18	23341ca4e4830bee	63424	2289273	8576	31200	31424	0	101017	35120
86.18	23341ca4e4830bee	63424	2289464	8576	31200	31424	0	101015	35168
86.18	23341ca4e4830bee	63424	2289656	8576	31200	31456	0	101011	35168
86.18	23341ca4e4830bee	63424	2289847	8576	31200	31456	0	101015	35168
86.18	23341ca4e4830bee	63424	2290038	8576	31200	31456	0	101015	35168
86.18	23341ca4e4830bee	63424	2290229	8576	31200	31456	0	101005	34960
86.18	23341ca4e4830bee	63424	2290420	8576	31200	31456	0	101007	34960
86.18	23341ca4e4830bee	63424	2290611	8576	31200	31456	0	101011	34960
86.18	23341ca4e4830bee	63424	2290802	8576	31200	31456	0	101011	34960
86.18	23341ca4e4830bee	63424	2290993	8576	31232	31456	0	101009	35104
86.36	23341ca4e4830bee	63424	2291184	8576	31232	31456	0	101009	35104
86.18	23341ca4e4830bee	63424	2291375	8576	31232	31456	0	101003	35104
86.18	23341ca4e4830bee	63424	2291567	8576	31232	31456	0	101009	35104
86.18	23341ca4e4830bee	63424	2291758	8576	31200	31440	0	101011	35072
86.18	23341ca4e4830bee	63424	2291949	8576	31200	31440	0	101009	35072
86.36	23341ca4e4830bee	63424	2292130	8576	31200	31440	0	101015	35072
86.36	23341ca4e4830bee	63424	2292321	8576	31200	31440	0	101007	35104
86.18	23341ca4e4830bee	63424	2292513	8576	31184	31472	0	101007	35104
86.18	23341ca4e4830bee	63424	2292704	8576	31184	31472	0	101009	35104
86.18	23341ca4e4830bee	63424	2292944	8576	31184	31472	0	101009	35104
86.18	23341ca4e4830bee	63440	2293135	8576	31184	31488	0	101011	35088
86.18	23341ca4e4830bee	63440	2293326	8576	31184	31488	0	101015	35088
86.18	23341ca4e4830bee	63440	2293517	8576	31184	31488	0	101015	35088
86.18	23341ca4e4830bee	63440	2293708	8576	31184	31488	0	101011	35088
86.18	23341ca4e4830bee	63440	2293900	8576	31216	31472	0	101011	34944
86.18	23341ca4e4830bee	63440	2294081	8576	31216	31472	0	101009	34944
86.18	23341ca4e4830bee	63440	2294272	8576	31216	31472	0	101007	34944
86.18	23341ca4e4830bee	63440	2294463	8576	31216	31472	0	101009	34944
86.36	23341ca4e4830bee	63424	2294654	8576	31168	31472	0	101015	35008
86.18	23341ca4e4830bee	63424	2294845	8576	31168	31472	0	101009	35008
86.36	23341ca4e4830bee	63424	2295036	8576	31168	31472	0	101019	35008
86.18	23341ca4e4830bee	63440	2295228	8576	31168	31472	0	101007	34976
86.18	23341ca4e4830bee	63440	2295419	8576	31232	31472	0	101017	34976
86.36	23341ca4e4830bee	63440	2295610	8576	31232	31472	0	101013	34976
86.18	23341ca4e4830bee	63440	2295791	8576	31232	31472	0	101007	34976
86.36	23341ca4e4830bee	63440	2295982	8576	31216	31472	0	101007	35312
86.36	23341ca4e4830bee	63440	2296173	8576	31216	31472	0	101009	35312
86.36	23341ca4e4830bee	63440	2296365	8576	31216	31472	0	101013	35312
86.36	23341ca4e4830bee	63440	2296556	8576	31216	31472	0	101015	35312
86.18	23341ca4e4830bee	63440	2296802	8448	31200	31440	0	101009	35184
86.36	23341ca4e4830bee	63440	2296993	8448	31200	31440	0	101019	35184
86.18	23341ca4e4830bee	63440	2297184	8448	31200	31440	0	101003	35184
86.36	23341ca4e4830bee	63440	2297375	8576	31200	31440	0	101013	35056
86.36	23341ca4e4830bee	63440	2297567	8576	31232	31472	0	101021	35056
86.36	23341ca4e4830bee	63440	2297758	8576	31232	31472	0	101015	35056
86.36	23341ca4e4830bee	63440	2297949	8576	31232	31472	0	101007	35056
86.36	23341ca4e4830bee	63440	2298140	8576	31200	31472	0	101013	35296
86.36	23341ca4e4830bee	63440	2298321	8576	31200	31440	0	101005	35296
86.36	23341ca4e4830bee	63440	2298524	8576	31200	31440	0	101009	35296
86.36	23341ca4e4830bee	63440	2298715	8576	31200	31440	0	101023	35296
86.36	23341ca4e4830bee	63440	2298906	8576	31168	31456	0	101015	34960
86.36	23341ca4e4830bee	63440	2299098	8576	31168	31456	0	101021	34960
86.36	23341ca4e4830bee	63440	2299289	8576	31168	31456	0	101017	34960
86.36	23341ca4e4830bee	63440	2299480	8576	31168	31456	0	101015	34960
86.36	23341ca4e4830bee	63440	2299661	8576	31248	31408	0	101007	35120
86.36	23341ca4e4830bee	63440	2299853	8576	31248	31408	0	101007	35120
86.36	23341ca4e4830bee	63440	2300044	8576	31248	31408	0	101009	35120
86.36	23341ca4e4830bee	63440	2300235	8576	31248	31408	0	101017	35120
86.36	23341ca4e4830bee	63424	2300426	8576	31184	31424	0	101019	35120
86.36	23341ca4e4830bee	63424	2300657	8576	31184	31424	0	101015	35120
86.36	23341ca4e4830bee	63424	2300848	8576	31184	31424	0	101009	35120
86.36	23341ca4e4830bee	63440	2301039	8576	31216	31456	0	101001	35104
86.36	23341ca4e4830bee	63440	2301230	8576	31216	31456	0	101017	35104
86.36	23341ca4e4830bee	63440	2301412	8576	31216	31456	0	101015	35104
86.36	23341ca4e4830bee	63440	2301603	8576	31216	31456	0	101011	35104
86.36	23341ca4e4830bee	63440	2301794	8576	31184	31440	0	101009	35136
86.36	23341ca4e4830bee	63440	2301985	8576	31184	31440	0	101015	35136
86.36	23341ca4e4830bee	63440	2302176	8576	31184	31440	0	101015	35136
86.36	23341ca4e4830bee	63440	2302367	8576	31184	31440	0	101017	35136
86.36	23341ca4e4830bee	63440	2302558	8576	31168	31408	0	101001	35360
86.36	23341ca4e4830bee	63440	2302749	8576	31168	31408	0	101017	35360
86.36	23341ca4e4830bee	63440	2302941	8576	31168	31408	0	101013	35360
86.36	23341ca4e4830bee	63440	2303122	8448	31168	31408	0	101007	35360
86.36	23341ca4e4830bee	63424	2303313	8448	31232	31440	0	101011	35344
86.36	23341ca4e4830bee	63424	2303504	8448	31232	31440	0	101013	35344
86.36	23341ca4e4830bee	63424	2303695	8448	31232	31440	0	101009	35344
86.36	23341ca4e4830bee	63440	2303886	8576	31232	31440	0	101013	35200
86.36	23341ca4e4830bee	63440	2304078	8576	31184	31472	0	101011	35200
86.36	23341ca4e4830bee	63440	2304269	8576	31184	31472	0	101011	35200
86.36	23341ca4e4830bee	63440	2304491	8576	31184	31472	0	101015	35200
86.36	23341ca4e4830bee	63440	2304672	8576	31200	31472	0	101013	35232
86.36	23341ca4e4830bee	63440	2304863	8576	31200	31472	0	101015	35232
86.36	23341ca4e4830bee	63440	2305054	8576	31200	31472	0	101017	35232
86.36	23341ca4e4830bee	63440	2305245	8576	31200	31472	0	101017	35232
86.36	23341ca4e4830bee	63440	2305437	8576	31184	31424	0	101017	35296
86.36	23341ca4e4830bee	63440	2305628	8576	31184	31424	0	101015	35296
86.36	23341ca4e4830bee	63440	2305819	8576	31184	31424	0	101013	35296
86.36	23341ca4e4830bee	63440	2306010	8576	31184	31424	0	101013	35296
86.36	23341ca4e4830bee	63440	2306201	8576	31200	31440	0	101017	35376
86.36	23341ca4e4830bee	63440	2306382	8576	31200	31440	0	101017	35376
86.36	23341ca4e4830bee	63440	2306573	8576	31200	31440	0	101023	35376
86.36	23341ca4e4830bee	63440	2306764	8576	31200	31440	0	101007	35168
86.36	23341ca4e4830bee	63440	2306955	8576	31216	31456	0	101009	35168
86.36	23341ca4e4830bee	63440	2307147	8576	31216	31456	0	101009	35168
86.36	23341ca4e4830bee	63440	2307338	8576	31216	31456	0	101017	35168
86.36	23341ca4e4830bee	63440	2307529	8576	31200	31456	0	101003	34976
86.36	23341ca4e4830bee	63440	2307720	8576	31200	31456	0	101015	34976
86.36	23341ca4e4830bee	63440	2307912	8576	31200	31456	0	101013	34976
86.36	23341ca4e4830bee	63440	2308103	8576	31200	31456	0	101013	34976
86.36	23341ca4e4830bee	63440	2308343	8576	31200	31456	0	101015	35280
86.36	23341ca4e4830bee	63440	2308546	8576	31200	31456	0	101013	35280
86.36	23341ca4e4830bee	63440	2308737	8576	31200	31456	0	101015	35280
86.36	23341ca4e4830bee	63440	2308928	8576	31200	31456	0	101013	35344
86.36	23341ca4e4830bee	63440	2309119	8576	31200	31472	0	101013	35344
86.36	23341ca4e4830bee	63440	2309311	8576	31200	31472	0	101013	35344
86.36	23341ca4e4830bee	63440	2309502	8576	31200	31472	0	101023	35344
86.36	23341ca4e4830bee	63440	2309693	8576	31200	31472	0	101015	34976
86.36	23341ca4e4830bee	63440	2309884	8576	31200	31424	0	101013	34976
86.36	23341ca4e4830bee	63440	2310075	8576	31200	31424	0	101017	34976
86.36	23341ca4e4830bee	63440	2310266	8576	31200	31424	0	101013	34976
86.36	23341ca4e4830bee	63440	2310457	8576	31200	31472	0	101011	35024
86.36	23341ca4e4830bee	63440	2310648	8576	31200	31472	0	101013	35024
86.36	23341ca4e4830bee	63440	2310839	8576	31200	31472	0	101013	35024
86.36	23341ca4e4830bee	63440	2311031	8576	31200	31472	0	101019	35024
86.36	23341ca4e4830bee	63440	2311222	8576	31216	31472	0	101013	34976
86.36	23341ca4e4830bee	63440	2311414	8576	31216	31472	0	101013	34976
86.36	23341ca4e4830bee	63440	2311605	8576	31216	31472	0	101007	34976
86.36	23341ca4e4830bee	63440	2311796	8576	31216	31472	0	101013	34976
86.36	23341ca4e4830bee	63440	2311987	8576	31200	31456	0	101015	35008
86.36	23341ca4e4830bee	63440	2312234	8576	31200	31456	0	101019	35008
86.36	23341ca4e4830bee	63440	2312425	8576	31200	31456	0	101007	35008
86.36	23341ca4e4830bee	63440	2312616	8576	31200	31456	0	101011	35008
86.36	23341ca4e4830bee	63440	2312807	8576	31200	31456	0	101017	35008
86.36	23341ca4e4830bee	63440	2312998	8576	31200	31456	0	101017	35008
86.36	23341ca4e4830bee	63440	2313189	8576	31200	31456	0	101011	35008
86.36	23341ca4e4830bee	63440	2313380	8576	31200	31456	0	101015	35008
86.36	23341ca4e4830bee	63440	2313571	8576	31200	31456	0	101017	35008
86.36	23341ca4e4830bee	63440	2313752	8576	31200	31456	0	101007	35008
86.36	23341ca4e4830bee	63440	2313944	8576	31200	31456	0	101009	35008
86.36	23341ca4e4830bee	63456	2314135	8576	31200	31456	0	101023	35360
86.36	23341ca4e4830bee	63456	2314326	8576	31200	31456	0	101001	35360
86.36	23341ca4e4830bee	63456	2314517	8576	31200	31456	1	101013	35360
86.36	23341ca4e4830bee	63456	2314713	8576	31200	31456	1	101013	35232
86.36	23341ca4e4830bee	63568	2314904	8576	31200	31472	1	101017	35232
86.36	23341ca4e4830bee	63568	2315096	8576	31200	31472	1	101021	35232
86.36	23341ca4e4830bee	63568	2315287	8576	31200	31472	1	101013	35232
86.36	23341ca4e4830bee	64480	2315478	8576	30048	29584	1	101007	35024
86.36	23341ca4e4830bee	64480	2315669	8576	30048	29584	1	101013	35024
86.36	23341ca4e4830bee	64480	2315861	8576	30048	29584	1	101019	35024
86.36	23341ca4e4830bee	64480	2316092	8576	30048	29584	1	101015	35024
86.36	23341ca4e4830bee	64448	2316273	8576	30640	29760	1	101011	35072
86.36	23341ca4e4830bee	64448	2316464	8576	30640	29760	1	101017	35072
86.36	23341ca4e4830bee	64448	2316656	8576	30640	29760	1	101015	35072
86.36	23341ca4e4830bee	64448	2316847	8576	30640	29760	1	101011	35072
86.36	23341ca4e4830bee	64288	2317038	8576	30672	30064	0	101009	35232
86.36	23341ca4e4830bee	64288	2317229	8576	30672	30064	1	101009	35232
86.18	23341ca4e4830bee	64288	2317420	8576	30672	30064	1	101011	35232
86.36	23341ca4e4830bee	64304	2317611	8576	30672	30064	1	101013	35056
86.36	23341ca4e4830bee	64304	2317802	8576	30704	30000	1	101009	35056
86.18	23341ca4e4830bee	64304	2317983	8576	30704	30000	1	101011	35056
86.18	23341ca4e4830bee	64304	2318174	8576	30704	30000	1	101015	35056
86.18	23341ca4e4830bee	64304	2318365	8576	30704	30016	1	101005	35088
86.18	23341ca4e4830bee	64304	2318557	8576	30704	30016	1	101005	35088
86.18	23341ca4e4830bee	64304	2318748	8576	30704	30016	1	101005	35088
86.18	23341ca4e4830bee	64304	2318939	8576	30704	30016	1	101017	35088
86.18	23341ca4e4830bee	64304	2319130	8576	30704	30000	1	101013	35328
86.18	23341ca4e4830bee	64304	2319321	8576	30704	30000	1	101007	35328
86.18	23341ca4e4830bee	64304	2319513	8576	30704	30000	1	101015	35328
86.18	23341ca4e4830bee	64304	2319694	8576	30704	30000	1	101015	35328
86.18	23341ca4e4830bee	64304	2319935	8576	30672	30016	0	101005	35056
86.18	23341ca4e4830bee	64304	2320127	8576	30672	30016	0	101013	35056
86.18	23341ca4e4830bee	64304	2320318	8576	30672	30016	0	101013	35056
86.18	23341ca4e4830bee	64304	2320521	8576	30720	30016	0	101009	35088
86.18	23341ca4e4830bee	64304	2320712	8576	30720	29984	0	101011	35088
86.18	23341ca4e4830bee	64304	2320903	8576	30720	29984	1	101013	35088
86.18	23341ca4e4830bee	64304	2321094	8576	30720	29984	1	101019	35088
86.18	23341ca4e4830bee	64320	2321285	8704	30720	30016	1	101005	34992
86.18	23341ca4e4830bee	64320	2321476	8704	30720	30016	0	101009	34992
86.18	23341ca4e4830bee	64320	2321668	8704	30720	30016	1	101015	34992
86.18	23341ca4e4830bee	64320	2321859	8704	30720	30016	0	101013	34992
86.18	23341ca4e4830bee	64240	2322050	8576	30704	30016	1	101015	35232
86.18	23341ca4e4830bee	64240	2322241	8576	30704	30016	1	101015	35232
86.18	23341ca4e4830bee	64240	2322432	8576	30704	30016	1	101005	35232
86.18	23341ca4e4830bee	64240	2322623	8576	30704	30016	1	101015	35232
86.18	23341ca4e4830bee	64480	2322814	8576	30608	30112	1	101025	35104
86.18	23341ca4e4830bee	64480	2323006	8576	30608	30112	0	101021	35104
86.18	23341ca4e4830bee	64480	2323197	8576	30608	30112	0	101027	35104
86.18	23341ca4e4830bee	64272	2323388	8576	30608	30112	1	101011	35344
86.18	23341ca4e4830bee	64272	2323579	8576	30752	30048	1	101019	35344
86.18	23341ca4e4830bee	64272	2323825	8576	30752	30048	1	101011	35344
86.18	23341ca4e4830bee	64272	2324016	8576	30752	30048	0	101011	35344
86.18	23341ca4e4830bee	64336	2324207	8576	30992	29696	1	101015	35312
86.18	23341ca4e4830bee	64336	2324398	8576	30992	29696	1	101007	35312
86.18	23341ca4e4830bee	64336	2324589	8576	30992	29696	0	101015	35312
86.18	23341ca4e4830bee	64336	2324780	8576	30992	29696	1	101005	35312
86.18	23341ca4e4830bee	64416	2324971	8576	30880	30208	1	101013	35264
86.18	23341ca4e4830bee	64416	2325163	8576	30880	30208	1	101017	35264
86.18	23341ca4e4830bee	64416	2325354	8576	30880	30208	1	101015	35264
86.18	23341ca4e4830bee	64416	2325545	8576	30880	30208	1	101011	34992
86.18	23341ca4e4830bee	64416	2325736	8576	30656	30272	1	101013	34992
86.18	23341ca4e4830bee	64416	2325928	8576	30656	30272	1	101011	34992
86.18	23341ca4e4830bee	64416	2326119	8576	30656	30272	0	101005	34992
86.18	23341ca4e4830bee	64416	2326310	8576	30688	30272	0	101013	35216
86.18	23341ca4e4830bee	64416	2326501	8576	30688	30224	1	101007	35216
86.18	23341ca4e4830bee	64416	2326692	8576	30688	30224	1	101011	35216
86.18	23341ca4e4830bee	64416	2326883	8576	30688	30224	0	101015	35216
86.18	23341ca4e4830bee	64400	2327065	8576	30688	30256	1	101007	35184
86.18	23341ca4e4830bee	64400	2327256	8576	30688	30256	0	101015	35184
86.18	23341ca4e4830bee	64400	2327447	8576	30688	30256	0	100999	35184
86.18	23341ca4e4830bee	64400	2327676	8576	30688	30256	1	101017	35184
86.18	23341ca4e4830bee	64400	2327867	8576	30656	30208	1	101009	35072
86.18	23341ca4e4830bee	64400	2328059	8576	30656	30208	1	101007	35072
86.18	23341ca4e4830bee	64400	2328250	8576	30656	30208	1	101011	35072
86.18	23341ca4e4830bee	64448	2328441	8576	30656	30208	1	101009	34992
86.18	23341ca4e4830bee	64448	2328632	8576	30736	30224	1	101009	34992
86.18	23341ca4e4830bee	64448	2328823	8576	30736	30224	1	101005	34992
86.18	23341ca4e4830bee	64448	2329014	8576	30736	30224	0	101007	34992
86.18	23341ca4e4830bee	64400	2329205	8576	30544	30288	1	101025	35072
86.18	23341ca4e4830bee	64400	2329396	8576	30544	30288	1	101017	35072
86.18	23341ca4e4830bee	64400	2329587	8576	30544	30288	1	101007	35072
86.18	23341ca4e4830bee	64400	2329778	8576	30544	30288	1	101013	35072
86.18	23341ca4e4830bee	64384	2329969	8576	30544	30288	1	101017	35152
86.18	23341ca4e4830bee	64384	2330161	8576	30544	30288	1	101009	35152
86.18	23341ca4e4830bee	64384	2330352	8576	30544	30288	1	101011	35152
86.18	23341ca4e4830bee	64384	2330543	8576	30544	30288	0	101007	35152
86.18	23341ca4e4830bee	64336	2330724	8576	30608	30240	1	101013	35264
86.18	23341ca4e4830bee	64336	2330916	8576	30608	30240	1	101017	35264
86.18	23341ca4e4830bee	64336	2331107	8576	30608	30240	1	101015	35264
86.18	23341ca4e4830bee	64336	2331299	8576	30608	30240	0	101021	35264
86.18	23341ca4e4830bee	64368	2331544	8576	30624	30288	1	101013	34944
86.18	23341ca4e4830bee	64368	2331725	8576	30624	30288	1	101015	34944
86.18	23341ca4e4830bee	64368	2331916	8576	30624	30288	1	101009	34944
86.18	23341ca4e4830bee	64416	2332107	8576	30640	30224	1	101007	35040
86.18	23341ca4e4830bee	64416	2332298	8576	30640	30224	1	101013	35040
86.18	23341ca4e4830bee	64416	2332489	8576	30640	30224	1	101013	35040
86.18	23341ca4e4830bee	64416	2332680	8576	30640	30224	1	101001	35040
86.18	23341ca4e4830bee	64416	2332872	8576	30640	30272	1	101011	35264
86.18	23341ca4e4830bee	64416	2333063	8576	30640	30272	0	101021	35264
86.18	23341ca4e4830bee	64416	2333254	8576	30640	30272	0	101015	35264
86.18	23341ca4e4830bee	64416	2333435	8576	30640	30272	0	101019	35264
86.18	23341ca4e4830bee	64432	2333636	8704	30640	30192	0	101009	35024
86.18	23341ca4e4830bee	64432	2333827	8704	30640	30192	0	101015	35024
86.18	23341ca4e4830bee	64432	2334019	8704	30640	30192	0	101007	35024
86.18	23341ca4e4830bee	64432	2334210	8576	30640	30192	0	101007	35040
86.18	23341ca4e4830bee	64432	2334401	8576	30592	30256	0	101017	35040
86.18	23341ca4e4830bee	64432	2334592	8576	30592	30256	0	101021	35040
86.18	23341ca4e4830bee	64432	2334783	8576	30592	30256	0	101013	35040
86.18	23341ca4e4830bee	64432	2334965	8576	30592	30256	0	101017	35376
86.18	23341ca4e4830bee	64432	2335156	8576	30624	30240	0	101011	35376
86.18	23341ca4e4830bee	64432	2335398	8576	30624	30240	0	101013	35376
86.18	23341ca4e4830bee	64432	2335589	8576	30624	30240	0	101011	35376
86.18	23341ca4e4830bee	64448	2335780	8576	30688	30224	0	101011	35232
86.18	23341ca4e4830bee	64448	2335971	8576	30688	30224	0	101013	35232
86.18	23341ca4e4830bee	64448	2336163	8576	30688	30224	0	101019	35232
86.18	23341ca4e4830bee	64448	2336354	8576	30688	30224	0	101013	35232
86.18	23341ca4e4830bee	64448	2336545	8576	30624	30288	1	101011	35104
86.18	23341ca4e4830bee	64448	2336736	8576	30624	30288	1	101017	35104
86.18	23341ca4e4830bee	64448	2336927	8576	30624	30288	1	101007	35104
86.18	23341ca4e4830bee	64448	2337118	8576	30624	30288	1	101015	35120
86.18	23341ca4e4830bee	64448	2337309	8576	30640	30272	0	101023	35120
86.18	23341ca4e4830bee	64448	2337500	8576	30640	30272	0	101015	35120
86.18	23341ca4e4830bee	64448	2337692	8576	30640	30272	0	101007	35120
86.18	23341ca4e4830bee	64448	2337883	8576	30624	30256	0	101009	35264
86.18	23341ca4e4830bee	64448	2338074	8576	30624	30256	0	101011	35264
86.18	23341ca4e4830bee	64448	2338255	8576	30624	30256	0	101011	35264
86.18	23341ca4e4830bee	64448	2338446	8576	30624	30256	0	101011	35264
86.18	23341ca4e4830bee	64448	2338637	8576	30608	30256	0	101011	35072
86.18	23341ca4e4830bee	64448	2338829	8576	30608	30256	0	101021	35072
86.18	23341ca4e4830bee	64448	2339020	8576	30608	30256	0	101017	35072
86.18	23341ca4e4830bee	64448	2339252	8576	30608	30256	0	101015	35072
86.18	23341ca4e4830bee	64448	2339443	8576	30624	30256	0	101011	35056
86.18	23341ca4e4830bee	64448	2339634	8576	30624	30256	0	101009	35056
86.18	23341ca4e4830bee	64448	2339825	8576	30624	30256	0	101005	35056
86.18	23341ca4e4830bee	64448	2340006	8576	30624	30256	0	101015	35328
86.18	23341ca4e4830bee	64448	2340197	8576	30640	30256	0	101011	35328
86.36	23341ca4e4830bee	64448	2340408	8576	30640	30256	0	101007	35328
86.18	23341ca4e4830bee	64448	2340599	8576	30640	30256	0	101003	35328
86.18	23341ca4e4830bee	64448	2340790	8576	30624	30304	0	101009	35104
86.18	23341ca4e4830bee	64448	2340981	8576	30624	30304	0	101005	35104
86.18	23341ca4e4830bee	64448	2341172	8576	30624	30304	0	101011	35104
86.18	23341ca4e4830bee	64448	2341363	8576	30624	30304	1	101009	35104
86.18	23341ca4e4830bee	64480	2341554	8576	30688	30176	1	101015	35280
86.18	23341ca4e4830bee	64480	2341736	8576	30688	30176	1	101003	35280
86.18	23341ca4e4830bee	64480	2341927	8576	30688	30176	1	101015	35280
86.18	23341ca4e4830bee	64480	2342118	8576	30688	30176	1	101007	35280
86.36	23341ca4e4830bee	64432	2342309	8576	30640	30176	1	101025	35360
86.18	23341ca4e4830bee	64432	2342500	8576	30640	30176	1	101015	35360
86.36	23341ca4e4830bee	64432	2342692	8576	30640	30176	1	101019	35360
86.18	23341ca4e4830bee	64432	2342883	8576	30640	30176	0	101009	34928
86.36	23341ca4e4830bee	64448	2343104	8576	30656	30224	1	101013	34928
86.36	23341ca4e4830bee	64448	2343295	8576	30656	30224	1	101009	34928
86.36	23341ca4e4830bee	64448	2343486	8576	30656	30224	1	101007	34928
86.18	23341ca4e4830bee	64448	2343677	8576	30688	30192	1	101003	35376
86.18	23341ca4e4830bee	64448	2343868	8576	30688	30192	0	101001	35376
86.36	23341ca4e4830bee	64448	2344059	8576	30688	30192	1	101013	35376
86.36	23341ca4e4830bee	64448	2344250	8576	30688	30192	1	101013	35376
86.36	23341ca4e4830bee	64448	2344441	8576	30656	30288	0	101013	34976
86.36	23341ca4e4830bee	64448	2344632	8576	30656	30288	1	101021	34976
86.36	23341ca4e4830bee	64448	2344835	8576	30656	30288	1	101015	34976
86.36	23341ca4e4830bee	64448	2345016	8576	30656	30288	1	101013	34976
86.36	23341ca4e4830bee	64816	2345208	8576	29520	30880	1	101013	35104
86.36	23341ca4e4830bee	64816	2345399	8576	29520	30880	1	101017	35104
86.36	23341ca4e4830bee	64816	2345590	8576	29520	30880	0	101013	35104
86.18	23341ca4e4830bee	64032	2345781	8576	29520	30880	1	101011	35280
86.18	23341ca4e4830bee	64032	2345972	8576	31216	31600	0	101009	35280
86.18	23341ca4e4830bee	64032	2346164	8576	31216	31600	1	101009	35280
86.18	23341ca4e4830bee	64032	2346355	8576	31216	31600	1	101003	35280
86.18	23341ca4e4830bee	63664	2346536	8576	31264	31584	0	101015	35248
86.18	23341ca4e4830bee	63664	2346727	8576	31264	31584	1	101011	35248
86.18	23341ca4e4830bee	63664	2346964	8576	31264	31584	1	101005	35248
86.18	23341ca4e4830bee	63664	2347155	8576	31264	31584	1	101015	35248
86.18	23341ca4e4830bee	63616	2347346	8576	31200	31632	1	101015	35328
86.18	23341ca4e4830bee	63616	2347537	8576	31200	31632	0	101011	35328
86.18	23341ca4e4830bee	63616	2347728	8576	31200	31632	0	101005	35328
86.18	23341ca4e4830bee	63616	2347919	8448	31200	31632	0	101015	35328
86.18	23341ca4e4830bee	63616	2348110	8448	31184	31648	1	101015	34976
86.18	23341ca4e4830bee	63616	2348302	8448	31184	31648	1	101009	34976
86.18	23341ca4e4830bee	63616	2348493	8448	31184	31648	1	101007	34976
86.18	23341ca4e4830bee	63600	2348684	8576	31184	31648	1	101017	35120
86.18	23341ca4e4830bee	63600	2348875	8576	31184	31616	0	101007	35120
86.18	23341ca4e4830bee	63600	2349066	8576	31184	31616	0	101003	35120
86.18	23341ca4e4830bee	63600	2349247	8576	31184	31616	0	101013	35120
86.18	23341ca4e4830bee	63616	2349438	8448	31168	31632	0	101011	35152
86.18	23341ca4e4830bee	63616	2349629	8448	31168	31632	0	101021	35152
86.18	23341ca4e4830bee	63616	2349821	8448	31168	31632	0	101013	35152
86.18	23341ca4e4830bee	63616	2350012	8448	31168	31632	0	101007	35152
86.18	23341ca4e4830bee	63600	2350203	8576	31184	31648	0	101011	35216
86.18	23341ca4e4830bee	63600	2350394	8576	31184	31648	0	101001	35216
86.18	23341ca4e4830bee	63600	2350585	8576	31184	31648	0	101003	35216
86.18	23341ca4e4830bee	63600	2350807	8576	31184	31648	0	101009	35216
86.18	23341ca4e4830bee	63600	2350998	8576	31184	31632	0	101007	35040
86.18	23341ca4e4830bee	63600	2351189	8576	31184	31632	0	101007	35040
86.18	23341ca4e4830bee	63600	2351380	8576	31184	31632	0	101015	35040
86.18	23341ca4e4830bee	63600	2351571	8576	31184	31632	0	101009	34960
86.18	23341ca4e4830bee	63600	2351762	8576	31184	31632	0	101007	34960
86.18	23341ca4e4830bee	63600	2351953	8576	31184	31632	0	101011	34960
86.18	23341ca4e4830bee	63600	2352144	8576	31184	31632	0	101011	34960
86.18	23341ca4e4830bee	63584	2352335	8576	31184	31600	0	101011	35088
86.18	23341ca4e4830bee	63584	2352526	8576	31184	31600	0	101009	35088
86.18	23341ca4e4830bee	63584	2352718	8576	31184	31600	0	101011	35088
86.18	23341ca4e4830bee	63584	2352909	8576	31184	31600	0	101003	35088
86.18	23341ca4e4830bee	63584	2353100	8576	31184	31648	0	101005	35280
86.18	23341ca4e4830bee	63584	2353291	8576	31184	31648	0	101009	35280
86.18	23341ca4e4830bee	63584	2353483	8576	31184	31648	0	101011	35280
86.18	23341ca4e4830bee	63584	2353674	8576	31184	31648	0	101011	35280
86.18	23341ca4e4830bee	63584	2353865	8576	31200	31648	0	101015	34944
86.18	23341ca4e4830bee	63584	2354056	8576	31200	31648	0	101011	34944
86.18	23341ca4e4830bee	63584	2354237	8576	31200	31648	0	101003	34944
86.36	23341ca4e4830bee	63584	2354429	8576	31200	31648	0	101015	34944
86.18	23341ca4e4830bee	63568	2354671	8576	31248	31616	0	101009	35024
86.36	23341ca4e4830bee	63568	2354862	8576	31248	31616	0	101009	35024
86.18	23341ca4e4830bee	63568	2355053	8576	31248	31616	0	101007	35024
86.36	23341ca4e4830bee	63568	2355245	8576	31200	31632	0	101007	35152
86.18	23341ca4e4830bee	63568	2355436	8576	31200	31632	0	101011	35152
86.36	23341ca4e4830bee	63568	2355627	8576	31200	31632	0	101027	35152
86.18	23341ca4e4830bee	63568	2355818	8576	31200	31632	0	101009	35152
86.36	23341ca4e4830bee	63568	2356009	8576	31232	31648	0	101021	35072
86.36	23341ca4e4830bee	63568	2356200	8576	31232	31648	0	101019	35072
86.36	23341ca4e4830bee	63568	2356391	8576	31232	31648	0	101013	35072
86.36	23341ca4e4830bee	63568	2356582	8576	31232	31648	0	101021	35072
86.36	23341ca4e4830bee	63584	2356774	8576	31200	31632	0	101009	35248
86.36	23341ca4e4830bee	63584	2356965	8576	31200	31632	0	101013	35248
86.36	23341ca4e4830bee	63584	2357156	8576	31200	31632	0	101013	35248
86.36	23341ca4e4830bee	63568	2357347	8576	31200	31632	0	101005	35216
86.36	23341ca4e4830bee	63568	2357538	8576	31200	31632	0	101013	35216
86.36	23341ca4e4830bee	63568	2357729	8576	31200	31632	0	101005	35216
86.36	23341ca4e4830bee	63568	2357921	8576	31200	31632	0	101013	35216
86.36	23341ca4e4830bee	63568	2358112	8576	31216	31584	0	101017	35072
86.36	23341ca4e4830bee	63568	2358303	8576	31216	31584	0	101023	35072
86.36	23341ca4e4830bee	63568	2358544	8576	31216	31584	0	101017	35072
86.36	23341ca4e4830bee	63568	2358735	8576	31216	31584	0	101015	35072
86.36	23341ca4e4830bee	63568	2358926	8576	31168	31664	0	101007	35264
86.36	23341ca4e4830bee	63568	2359117	8576	31168	31664	0	101007	35264
86.36	23341ca4e4830bee	63568	2359298	8576	31168	31664	0	101017	35264
86.36	23341ca4e4830bee	63568	2359489	8448	31168	31664	0	101007	35312
86.36	23341ca4e4830bee	63584	2359680	8448	31200	31648	0	101013	35312
86.36	23341ca4e4830bee	63584	2359871	8448	31200	31648	0	101003	35312
86.36	23341ca4e4830bee	63584	2360062	8448	31200	31648	0	101003	35312
86.36	23341ca4e4830bee	63568	2360253	8576	31184	31648	0	101011	35040
86.36	23341ca4e4830bee	63568	2360444	8576	31184	31632	0	101013	35040
86.36	23341ca4e4830bee	63568	2360636	8576	31184	31632	0	101015	35040
86.36	23341ca4e4830bee	63568	2360827	8576	31184	31632	0	101015	35040
86.36	23341ca4e4830bee	63568	2361008	8576	31200	31664	0	101013	35120
86.36	23341ca4e4830bee	63568	2361206	8576	31200	31664	0	101007	35120
86.36	23341ca4e4830bee	63568	2361398	8576	31200	31664	0	101005	35120
86.36	23341ca4e4830bee	63568	2361589	8576	31200	31664	0	101009	35120
86.36	23341ca4e4830bee	63568	2361785	8576	31232	31616	0	101011	35200
86.36	23341ca4e4830bee	63568	2361976	8576	31232	31616	0	101011	35200
86.36	23341ca4e4830bee	63568	2362168	8576	31232	31616	0	101017	35200
86.36	23341ca4e4830bee	63568	2362412	8576	31232	31616	0	101017	35216
86.36	23341ca4e4830bee	63568	2362603	8576	31200	31680	0	101015	35216
86.36	23341ca4e4830bee	63568	2362794	8576	31200	31680	0	101001	35216
86.36	23341ca4e4830bee	63568	2362985	8576	31200	31680	0	101021	35216
86.36	23341ca4e4830bee	63584	2363176	8576	31216	31616	0	101007	35296
86.36	23341ca4e4830bee	63584	2363367	8576	31216	31616	0	101011	35296
86.36	23341ca4e4830bee	63584	2363549	8576	31216	31616	0	101001	35296
86.36	23341ca4e4830bee	63584	2363740	8576	31216	31616	0	101015	35296
86.36	23341ca4e4830bee	63584	2363931	8576	31216	31616	0	101015	35280
86.36	23341ca4e4830bee	63584	2364122	8576	31216	31616	0	101001	35280
86.36	23341ca4e4830bee	63584	2364313	8576	31216	31616	0	101017	35280
86.36	23341ca4e4830bee	63584	2364504	8576	31216	31616	0	101013	35280
86.36	23341ca4e4830bee	63568	2364695	8576	31168	31680	0	101011	34992
86.36	23341ca4e4830bee	63568	2364886	8576	31168	31680	0	101007	34992
86.36	23341ca4e4830bee	63568	2365078	8576	31168	31680	0	101011	34992
86.36	23341ca4e4830bee	63568	2365259	8576	31168	31680	0	101009	34992
86.36	23341ca4e4830bee	63584	2365450	8576	31168	31632	0	101013	35360
86.36	23341ca4e4830bee	63584	2365641	8576	31168	31632	0	101013	35360
86.36	23341ca4e4830bee	63584	2365832	8576	31168	31632	0	101007	35360
86.36	23341ca4e4830bee	63568	2366024	8576	31168	31632	0	101007	35152
86.36	23341ca4e4830bee	63568	2366264	8576	31200	31632	0	101015	35152
86.36	23341ca4e4830bee	63568	2366455	8576	31200	31632	0	101021	35152
86.36	23341ca4e4830bee	63568	2366646	8576	31200	31632	0	101023	35152
86.36	23341ca4e4830bee	63568	2366837	8576	31200	31616	0	101023	35344
86.36	23341ca4e4830bee	63568	2367018	8576	31200	31616	0	101011	35344
86.36	23341ca4e4830bee	63568	2367210	8576	31200	31616	0	101015	35344
86.36	23341ca4e4830bee	63568	2367401	8448	31200	31616	0	101015	35344
86.36	23341ca4e4830bee	63584	2367592	8448	31168	31616	0	101027	35312
86.36	23341ca4e4830bee	63584	2367783	8448	31168	31616	0	101003	35312
86.36	23341ca4e4830bee	63584	2367974	8448	31168	31616	0	101009	35312
86.36	23341ca4e4830bee	63584	2368165	8576	31168	31616	0	101009	35200
86.36	23341ca4e4830bee	63568	2368357	8576	31184	31616	0	101023	35200
86.36	23341ca4e4830bee	63568	2368548	8576	31184	31616	0	101011	35200
86.36	23341ca4e4830bee	63568	2368729	8576	31184	31616	0	101021	35200
86.36	23341ca4e4830bee	63584	2368920	8576	31152	31616	0	101015	34992
86.36	23341ca4e4830bee	63584	2369112	8576	31152	31648	0	101009	34992
86.36	23341ca4e4830bee	63584	2369303	8576	31152	31648	0	101001	34992
86.36	23341ca4e4830bee	63584	2369494	8576	31152	31648	0	101009	34992
86.36	23341ca4e4830bee	63584	2369685	8576	31184	31632	0	101017	34992
86.36	23341ca4e4830bee	63584	2369876	8576	31184	31632	0	101015	34992
86.36	23341ca4e4830bee	63584	2370132	8576	31184	31632	0	101009	34992
86.36	23341ca4e4830bee	63584	2370323	8576	31184	31632	0	101009	35056
86.36	23341ca4e4830bee	63584	2370522	8576	31168	31648	0	101015	35056
86.36	23341ca4e4830bee	63584	2370713	8576	31168	31648	0	101011	35056
86.36	23341ca4e4830bee	63584	2370904	8576	31168	31648	0	101009	35056
86.36	23341ca4e4830bee	63584	2371095	8576	31184	31600	0	101017	35296
86.36	23341ca4e4830bee	63584	2371287	8576	31184	31600	0	101013	35296
86.36	23341ca4e4830bee	63584	2371478	8576	31184	31600	0	101015	35296
86.36	23341ca4e4830bee	63584	2371669	8576	31184	31600	0	101019	35296
86.36	23341ca4e4830bee	63584	2371860	8576	31184	31632	0	101005	35072
86.36	23341ca4e4830bee	63584	2372052	8576	31184	31632	0	101017	35072
86.36	23341ca4e4830bee	63584	2372243	8576	31184	31632	0	101017	35072
86.36	23341ca4e4830bee	63584	2372434	8576	31184	31632	0	101009	35072
86.36	23341ca4e4830bee	63584	2372625	8576	31200	31632	0	101011	35008
86.36	23341ca4e4830bee	63584	2372816	8576	31200	31632	0	101013	35008
86.36	23341ca4e4830bee	63584	2373007	8576	31200	31632	0	101011	35008
86.36	23341ca4e4830bee	63584	2373199	8576	31200	31632	0	101003	35008
86.36	23341ca4e4830bee	63584	2373380	8576	31184	31632	0	101017	35360
86.36	23341ca4e4830bee	63584	2373574	8576	31184	31632	0	101023	35360
86.36	23341ca4e4830bee	63584	2373765	8576	31184	31632	0	101011	35360
86.36	23341ca4e4830bee	63584	2374008	8576	31168	31616	0	101009	35312
86.36	23341ca4e4830bee	63584	2374189	8576	31168	31616	0	101013	35312
86.36	23341ca4e4830bee	63584	2374380	8576	31168	31616	0	101011	35312
86.36	23341ca4e4830bee	63584	2374575	8576	31168	31616	0	101011	35312
86.36	23341ca4e4830bee	63584	2374766	8576	31184	31664	0	101017	35280
86.36	23341ca4e4830bee	63584	2374961	8576	31184	31664	0	101015	35280
86.36	23341ca4e4830bee	63584	2375152	8576	31184	31664	0	101015	35280
86.36	23341ca4e4830bee	63584	2375343	8576	31184	31664	0	101009	35280
86.36	23341ca4e4830bee	63584	2375545	8576	31152	31632	0	101015	34992
86.36	23341ca4e4830bee	63584	2375736	8576	31152	31632	0	101021	34992
86.36	23341ca4e4830bee	63584	2375928	8576	31152	31632	0	101017	34992
86.36	23341ca4e4830bee	63584	2376119	8576	31152	31632	0	101005	35312
86.36	23341ca4e4830bee	63584	2376300	8576	31168	31648	0	101017	35312
86.36	23341ca4e4830bee	63584	2376491	8576	31168	31648	0	101019	35312
86.36	23341ca4e4830bee	63584	2376682	8576	31168	31648	0	101021	35312
86.36	23341ca4e4830bee	63584	2376873	8576	31136	31648	0	101023	35024
86.36	23341ca4e4830bee	63584	2377065	8576	31136	31664	0	101013	35024
86.36	23341ca4e4830bee	63584	2377256	8576	31136	31664	0	101015	35024
86.36	23341ca4e4830bee	63584	2377447	8576	31136	31664	0	101009	35024
86.36	23341ca4e4830bee	63584	2377638	8576	31168	31664	0	101015	35104