Digit_temp	id	light	timestamp	acc_z	acc_y	acc_x	motion	pressure	humid
84.38	23341ca4e4830bee	61232	551749	8320	36672	31184	0	101019	35072
84.38	23341ca4e4830bee	61232	551947	8320	36672	31184	0	101015	35072
84.38	23341ca4e4830bee	61232	552138	8320	36672	31184	0	101017	35072
84.38	23341ca4e4830bee	61232	552330	8320	36672	31184	0	101025	35072
84.56	23341ca4e4830bee	61232	552521	8320	36624	31184	0	101021	35056
84.56	23341ca4e4830bee	61232	552712	8320	36624	31184	0	101023	35056
84.56	23341ca4e4830bee	61232	552903	8320	36624	31184	0	101021	35056
84.56	23341ca4e4830bee	61232	553094	8192	36624	31184	0	101021	35056
84.56	23341ca4e4830bee	61248	553285	8192	36624	31184	0	101015	35232
84.56	23341ca4e4830bee	61248	553482	8192	36624	31184	0	101025	35232
84.56	23341ca4e4830bee	61248	553673	8192	36624	31184	0	101017	35232
84.56	23341ca4e4830bee	61232	553864	8320	36672	31184	0	101009	35072
84.56	23341ca4e4830bee	61232	554055	8320	36672	31216	0	101023	35072
84.56	23341ca4e4830bee	61232	554246	8320	36672	31216	0	101017	35072
84.56	23341ca4e4830bee	61232	554437	8320	36672	31216	0	101027	35072
84.56	23341ca4e4830bee	61232	554628	8320	36688	31200	0	101015	35104
84.56	23341ca4e4830bee	61232	554809	8320	36688	31200	0	101021	35104
84.56	23341ca4e4830bee	61232	555000	8320	36688	31200	0	101009	35104
84.56	23341ca4e4830bee	61232	555211	8320	36688	31200	0	101021	35104
84.56	23341ca4e4830bee	61248	555402	8320	36624	31200	0	101009	35200
84.56	23341ca4e4830bee	61248	555642	8320	36624	31200	0	101011	35200
84.56	23341ca4e4830bee	61248	555833	8320	36624	31200	0	101007	35200
84.56	23341ca4e4830bee	61232	556024	8320	36624	31200	0	101015	35248
84.56	23341ca4e4830bee	61232	556215	8320	36688	31168	0	101015	35248
84.56	23341ca4e4830bee	61232	556406	8320	36688	31168	0	101013	35248
84.56	23341ca4e4830bee	61232	556597	8320	36688	31168	0	101023	35248
84.56	23341ca4e4830bee	61232	556788	8320	36656	31168	0	101015	35104
84.56	23341ca4e4830bee	61232	556969	8320	36656	31168	0	101015	35104
84.56	23341ca4e4830bee	61232	557161	8320	36656	31168	0	101017	35104
84.56	23341ca4e4830bee	61232	557352	8320	36656	31168	0	101019	35104
84.56	23341ca4e4830bee	61232	557543	8320	36640	31168	0	101021	35264
84.56	23341ca4e4830bee	61232	557734	8320	36640	31168	0	101019	35264
84.56	23341ca4e4830bee	61232	557925	8320	36640	31168	0	101017	35264
84.56	23341ca4e4830bee	61232	558117	8320	36640	31168	0	101013	35264
84.56	23341ca4e4830bee	61232	558308	8320	36688	31184	0	101019	35152
84.56	23341ca4e4830bee	61232	558499	8320	36688	31184	0	101013	35152
84.56	23341ca4e4830bee	61232	558680	8320	36688	31184	0	101011	35152
84.56	23341ca4e4830bee	61232	558871	8320	36688	31184	0	101011	35152
84.56	23341ca4e4830bee	61232	559063	8320	36656	31184	0	101011	35232
84.56	23341ca4e4830bee	61232	559254	8320	36656	31184	0	101011	35232
84.56	23341ca4e4830bee	61232	559495	8320	36656	31184	0	101017	35232
84.56	23341ca4e4830bee	61232	559686	8320	36640	31152	0	101019	35072
84.56	23341ca4e4830bee	61232	559877	8320	36640	31152	0	101011	35072
84.56	23341ca4e4830bee	61232	560068	8320	36640	31152	0	101017	35072
84.56	23341ca4e4830bee	61232	560259	8320	36640	31152	0	101013	35072
84.56	23341ca4e4830bee	61232	560441	8320	36656	31184	0	101023	35152
84.56	23341ca4e4830bee	61232	560632	8320	36656	31184	0	101023	35152
84.56	23341ca4e4830bee	61232	560823	8320	36656	31184	0	101013	35152
84.56	23341ca4e4830bee	61232	561014	8320	36656	31184	0	101019	35152
84.56	23341ca4e4830bee	61232	561205	8320	36672	31152	0	101017	35024
84.56	23341ca4e4830bee	61232	561396	8320	36672	31152	0	101021	35024
84.56	23341ca4e4830bee	61232	561587	8320	36672	31152	0	101013	35024
84.56	23341ca4e4830bee	61232	561778	8320	36672	31152	0	101021	34944
84.56	23341ca4e4830bee	61248	561969	8320	36640	31168	0	101013	34944
84.56	23341ca4e4830bee	61248	562151	8320	36640	31168	0	101017	34944
84.56	23341ca4e4830bee	61248	562342	8320	36640	31168	0	101023	34944
84.56	23341ca4e4830bee	61232	562540	8320	36640	31168	0	101023	35248
84.56	23341ca4e4830bee	61232	562731	8320	36640	31168	0	101015	35248
84.56	23341ca4e4830bee	61232	562922	8320	36640	31168	0	101019	35248
84.56	23341ca4e4830bee	61232	563114	8320	36640	31168	0	101019	35248
84.56	23341ca4e4830bee	61232	563342	8320	36640	31136	0	101019	35312
84.56	23341ca4e4830bee	61232	563533	8320	36640	31136	0	101015	35312
84.56	23341ca4e4830bee	61232	563724	8320	36640	31136	0	101021	35312
84.56	23341ca4e4830bee	61232	563915	8320	36640	31136	0	101021	35312
84.56	23341ca4e4830bee	61232	564106	8320	36608	31184	0	101023	35056
84.56	23341ca4e4830bee	61232	564297	8320	36608	31184	0	101015	35056
84.56	23341ca4e4830bee	61232	564489	8320	36608	31184	0	101009	35056
84.56	23341ca4e4830bee	61232	564680	8320	36608	31184	0	101019	35088
84.56	23341ca4e4830bee	61232	564861	8320	36608	31152	0	101015	35088
84.56	23341ca4e4830bee	61232	565052	8320	36608	31152	0	101019	35088
84.56	23341ca4e4830bee	61232	565243	8320	36608	31152	0	101013	35088
84.56	23341ca4e4830bee	61232	565434	8320	36656	31152	0	101015	34944
84.56	23341ca4e4830bee	61232	565628	8320	36656	31152	0	101023	34944
84.56	23341ca4e4830bee	61232	565819	8320	36656	31152	0	101017	34944
84.56	23341ca4e4830bee	61232	566000	8320	36656	31152	0	101013	34944
84.56	23341ca4e4830bee	61232	566192	8320	36656	31184	0	101015	35376
84.56	23341ca4e4830bee	61232	566383	8320	36656	31184	0	101023	35376
84.56	23341ca4e4830bee	61232	566574	8320	36656	31184	0	101017	35376
84.56	23341ca4e4830bee	61232	566765	8320	36656	31184	0	101013	35376
84.56	23341ca4e4830bee	61232	566957	8320	36640	31184	0	101013	35008
84.56	23341ca4e4830bee	61232	567198	8320	36640	31184	0	101013	35008
84.56	23341ca4e4830bee	61232	567389	8320	36640	31184	0	101013	35008
84.56	23341ca4e4830bee	61232	567580	8320	36640	31184	0	101013	35296
84.56	23341ca4e4830bee	61232	567761	8320	36624	31168	0	101027	35296
84.56	23341ca4e4830bee	61232	567952	8320	36624	31168	0	101019	35296
84.56	23341ca4e4830bee	61232	568143	8320	36624	31168	0	101021	35296
84.56	23341ca4e4830bee	61232	568335	8320	36672	31168	0	101015	35120
84.56	23341ca4e4830bee	61232	568526	8320	36672	31168	0	101017	35120
84.56	23341ca4e4830bee	61232	568717	8320	36672	31168	0	101007	35120
84.56	23341ca4e4830bee	61232	568908	8320	36672	31168	0	101021	35120
84.56	23341ca4e4830bee	61248	569099	8320	36672	31152	0	101013	35168
84.56	23341ca4e4830bee	61248	569301	8320	36672	31152	0	101017	35168
84.56	23341ca4e4830bee	61248	569496	8320	36672	31152	0	101017	35168
84.56	23341ca4e4830bee	61248	569687	8320	36672	31152	0	101011	35168
84.74	23341ca4e4830bee	61232	569878	8320	36656	31168	0	101027	35232
84.56	23341ca4e4830bee	61232	570070	8320	36656	31168	0	101011	35232
84.74	23341ca4e4830bee	61232	570251	8320	36656	31168	0	101027	35232
84.56	23341ca4e4830bee	61232	570442	8320	36656	31168	0	101015	35232
84.74	23341ca4e4830bee	61232	570634	8320	36672	31152	0	101021	35168
84.74	23341ca4e4830bee	61232	570825	8320	36672	31152	0	101031	35168
84.56	23341ca4e4830bee	61232	571064	8320	36672	31152	0	101015	35168
84.74	23341ca4e4830bee	61248	571255	8320	36656	31168	0	101025	35104
84.74	23341ca4e4830bee	61248	571446	8320	36656	31168	0	101009	35104
84.74	23341ca4e4830bee	61248	571637	8320	36656	31168	0	101021	35104
84.74	23341ca4e4830bee	61248	571828	8320	36656	31168	0	101019	35104
84.74	23341ca4e4830bee	61232	572019	8320	36640	31152	0	101021	35072
84.74	23341ca4e4830bee	61232	572210	8320	36640	31152	0	101025	35072
84.74	23341ca4e4830bee	61232	572391	8320	36640	31152	0	101015	35072
84.74	23341ca4e4830bee	61232	572582	8320	36640	31152	0	101027	35072
84.74	23341ca4e4830bee	61232	572773	8320	36672	31168	0	101019	35136
84.74	23341ca4e4830bee	61232	572965	8320	36672	31168	0	101015	35136
84.74	23341ca4e4830bee	61232	573156	8320	36672	31168	0	101025	35136
84.74	23341ca4e4830bee	61232	573347	8320	36672	31168	0	101021	35216
84.74	23341ca4e4830bee	61232	573538	8320	36640	31152	0	101021	35216
84.74	23341ca4e4830bee	61232	573729	8320	36640	31152	0	101029	35216
84.74	23341ca4e4830bee	61232	573920	8320	36640	31152	0	101019	35216
84.74	23341ca4e4830bee	61232	574102	8320	36624	31152	0	101023	35120
84.74	23341ca4e4830bee	61232	574293	8320	36624	31168	0	101017	35120
84.74	23341ca4e4830bee	61232	574484	8320	36624	31168	0	101021	35120
84.74	23341ca4e4830bee	61232	574675	8320	36624	31168	0	101023	35120
84.74	23341ca4e4830bee	61232	574915	8320	36624	31184	0	101023	35136
84.74	23341ca4e4830bee	61232	575106	8320	36624	31184	0	101021	35136
84.74	23341ca4e4830bee	61232	575297	8320	36624	31184	0	101021	35136
84.74	23341ca4e4830bee	61232	575497	8320	36624	31184	0	101023	35136
84.74	23341ca4e4830bee	61232	575688	8320	36688	31152	0	101017	35120
84.74	23341ca4e4830bee	61232	575879	8320	36688	31152	0	101027	35120
84.74	23341ca4e4830bee	61232	576070	8320	36688	31152	0	101021	35120
84.74	23341ca4e4830bee	61232	576261	8320	36640	31152	0	101011	34992
84.74	23341ca4e4830bee	61232	576453	8320	36640	31168	0	101033	34992
84.74	23341ca4e4830bee	61232	576644	8320	36640	31168	0	101023	34992
84.74	23341ca4e4830bee	61232	576835	8320	36640	31168	0	101023	34992
84.74	23341ca4e4830bee	61232	577026	8320	36640	31168	0	101017	35280
84.74	23341ca4e4830bee	61232	577217	8320	36640	31168	0	101023	35280
84.74	23341ca4e4830bee	61232	577408	8320	36640	31168	0	101027	35280
84.74	23341ca4e4830bee	61232	577599	8320	36640	31168	0	101015	35280
84.74	23341ca4e4830bee	61232	577791	8320	36640	31184	0	101015	34976
84.74	23341ca4e4830bee	61232	577982	8320	36640	31184	0	101017	34976
84.74	23341ca4e4830bee	61232	578173	8320	36640	31184	0	101017	34976
84.74	23341ca4e4830bee	61232	578364	8320	36640	31184	0	101013	34976
84.74	23341ca4e4830bee	61248	578555	8320	36608	31152	0	101021	35184
84.74	23341ca4e4830bee	61248	578794	8320	36608	31152	0	101025	35184
84.74	23341ca4e4830bee	61248	578985	8320	36608	31152	0	101019	35184
84.74	23341ca4e4830bee	61248	579176	8320	36656	31168	0	101019	35104
84.74	23341ca4e4830bee	61248	579368	8320	36656	31168	0	101027	35104
84.74	23341ca4e4830bee	61248	579559	8320	36656	31168	0	101027	35104
84.74	23341ca4e4830bee	61248	579754	8320	36656	31168	0	101017	35104
84.74	23341ca4e4830bee	61232	579945	8320	36656	31200	0	101023	35040
84.74	23341ca4e4830bee	61232	580136	8320	36656	31200	0	101025	35040
84.74	23341ca4e4830bee	61232	580327	8320	36656	31200	0	101019	35040
84.74	23341ca4e4830bee	61232	580518	8320	36656	31200	0	101021	35040
84.74	23341ca4e4830bee	61232	580709	8320	36624	31152	0	101023	35264
84.74	23341ca4e4830bee	61232	580900	8320	36624	31152	0	101017	35264
84.74	23341ca4e4830bee	61232	581091	8320	36624	31152	0	101021	35264
84.74	23341ca4e4830bee	61232	581273	8320	36624	31152	0	101017	35264
84.74	23341ca4e4830bee	61248	581464	8320	36640	31168	0	101029	35312
84.74	23341ca4e4830bee	61248	581655	8320	36640	31168	0	101019	35312
84.74	23341ca4e4830bee	61248	581846	8320	36640	31168	0	101021	35312
84.74	23341ca4e4830bee	61232	582049	8320	36624	31168	0	101023	35264
84.74	23341ca4e4830bee	61232	582256	8320	36624	31168	0	101019	35264
84.74	23341ca4e4830bee	61232	582447	8320	36624	31168	0	101017	35264
84.74	23341ca4e4830bee	61232	582677	8320	36624	31168	0	101017	35264
84.74	23341ca4e4830bee	61232	582868	8320	36688	31200	0	101023	35120
84.74	23341ca4e4830bee	61232	583059	8320	36688	31200	0	101017	35120
84.74	23341ca4e4830bee	61232	583250	8320	36688	31200	0	101021	35120
84.74	23341ca4e4830bee	61232	583441	8320	36688	31200	0	101019	35120
84.74	23341ca4e4830bee	61248	583632	8320	36608	31168	0	101023	35312
84.74	23341ca4e4830bee	61248	583813	8320	36608	31168	0	101019	35312
84.74	23341ca4e4830bee	61248	584004	8320	36608	31168	0	101013	35312
84.74	23341ca4e4830bee	61248	584195	8320	36608	31168	0	101017	35008
84.74	23341ca4e4830bee	61248	584393	8320	36656	31184	0	101017	35008
84.74	23341ca4e4830bee	61248	584584	8320	36656	31184	0	101017	35008
84.74	23341ca4e4830bee	61248	584775	8320	36656	31184	0	101013	35008
84.74	23341ca4e4830bee	61232	584966	8320	36640	31184	0	101023	35248
84.74	23341ca4e4830bee	61232	585158	8320	36640	31184	0	101019	35248
84.74	23341ca4e4830bee	61232	585349	8320	36640	31184	0	101013	35248
84.74	23341ca4e4830bee	61232	585540	8320	36640	31184	0	101019	35248
84.74	23341ca4e4830bee	61232	585731	8448	36656	31152	0	101011	35312
84.74	23341ca4e4830bee	61232	585922	8448	36656	31152	0	101019	35312
84.74	23341ca4e4830bee	61232	586104	8448	36656	31152	0	101027	35312
84.74	23341ca4e4830bee	61232	586295	8448	36656	31152	0	101017	35312
84.74	23341ca4e4830bee	61232	586530	8320	36640	31152	0	101019	35024
84.74	23341ca4e4830bee	61232	586721	8320	36640	31152	0	101019	35024
84.74	23341ca4e4830bee	61232	586912	8320	36640	31152	0	101015	35024
84.74	23341ca4e4830bee	61232	587103	8320	36624	31152	0	101013	35136
84.74	23341ca4e4830bee	61232	587294	8320	36624	31184	0	101025	35136
84.74	23341ca4e4830bee	61232	587485	8320	36624	31184	0	101013	35136
84.74	23341ca4e4830bee	61232	587676	8320	36624	31184	0	101011	35136
84.74	23341ca4e4830bee	61232	587868	8320	36656	31184	0	101013	35264
84.74	23341ca4e4830bee	61232	588059	8320	36656	31184	0	101011	35264
84.92	23341ca4e4830bee	61232	588250	8320	36656	31184	0	101023	35264
84.74	23341ca4e4830bee	61232	588441	8320	36656	31184	0	101015	35264
84.74	23341ca4e4830bee	61232	588632	8320	36640	31168	0	101017	35248
84.74	23341ca4e4830bee	61232	588813	8320	36640	31168	0	101015	35248
84.74	23341ca4e4830bee	61232	589004	8320	36640	31168	0	101021	35248
84.74	23341ca4e4830bee	61232	589195	8320	36640	31168	0	101021	35248
84.74	23341ca4e4830bee	61248	589387	8320	36640	31184	0	101013	35168
84.74	23341ca4e4830bee	61248	589578	8320	36640	31184	0	101015	35168
84.92	23341ca4e4830bee	61248	589769	8320	36640	31184	0	101019	35168
84.74	23341ca4e4830bee	61248	589968	8320	36640	31184	0	101017	35232
84.74	23341ca4e4830bee	61248	590160	8320	36656	31168	0	101017	35232
84.74	23341ca4e4830bee	61248	590396	8320	36656	31168	0	101019	35232
84.92	23341ca4e4830bee	61248	590587	8320	36656	31168	0	101025	35232
84.74	23341ca4e4830bee	61232	590778	8320	36672	31152	0	101019	35248
84.92	23341ca4e4830bee	61232	590969	8320	36672	31152	0	101025	35248
84.92	23341ca4e4830bee	61232	591160	8320	36672	31152	0	101027	35248
84.92	23341ca4e4830bee	61232	591351	8320	36672	31152	0	101025	35248
84.92	23341ca4e4830bee	61232	591542	8320	36672	31168	0	101023	35248
84.92	23341ca4e4830bee	61232	591733	8320	36672	31168	0	101027	35248
84.92	23341ca4e4830bee	61232	591937	8320	36672	31168	0	101019	35248
84.92	23341ca4e4830bee	61232	592128	8320	36672	31168	0	101019	35280
84.92	23341ca4e4830bee	61248	592319	8320	36656	31168	0	101019	35280
84.92	23341ca4e4830bee	61248	592510	8320	36656	31168	0	101025	35280
84.74	23341ca4e4830bee	61248	592701	8320	36656	31168	0	101017	35280
84.92	23341ca4e4830bee	61648	592892	8320	36640	31152	0	101013	35120
84.92	23341ca4e4830bee	61648	593084	8320	36640	31152	0	101019	35120
84.92	23341ca4e4830bee	61648	593275	8320	36640	31152	0	101017	35120
84.92	23341ca4e4830bee	61648	593466	8320	36640	31152	0	101019	35120
84.92	23341ca4e4830bee	62064	593657	8320	36688	31168	0	101029	35136
84.92	23341ca4e4830bee	62064	593848	8320	36688	31168	0	101031	35136
84.92	23341ca4e4830bee	62064	594040	8320	36688	31168	0	101013	35136
84.92	23341ca4e4830bee	62064	594281	8320	36688	31168	0	101013	35136
84.92	23341ca4e4830bee	63328	594472	8320	33376	30240	0	101019	35056
84.92	23341ca4e4830bee	63328	594663	8320	33376	30240	1	101017	35056
84.92	23341ca4e4830bee	63328	594845	8320	33376	30240	0	101023	35056
84.92	23341ca4e4830bee	65328	595036	8320	33376	30240	0	101017	35216
84.92	23341ca4e4830bee	65328	595227	8320	35616	30944	1	101023	35216
84.74	23341ca4e4830bee	65328	595418	8320	35616	30944	1	101017	35216
84.92	23341ca4e4830bee	65328	595609	8320	35616	30944	1	101025	35216
84.92	23341ca4e4830bee	65072	595800	8320	36928	31360	0	101019	35184
84.74	23341ca4e4830bee	65072	595991	8320	36928	31360	1	101021	35184
84.92	23341ca4e4830bee	65072	596182	8320	36928	31360	1	101019	35184
84.92	23341ca4e4830bee	65072	596374	8320	36928	31360	0	101025	35184
84.92	23341ca4e4830bee	65120	596555	8320	36992	31296	1	101023	35248
84.74	23341ca4e4830bee	65120	596746	8320	36992	31296	1	101011	35248
84.92	23341ca4e4830bee	65120	596937	8320	36992	31296	1	101025	35248
84.92	23341ca4e4830bee	65120	597129	8320	36992	31296	1	101019	35248
84.92	23341ca4e4830bee	65152	597320	8320	36992	31280	0	101013	34992
84.92	23341ca4e4830bee	65152	597511	8320	36992	31280	1	101023	34992
84.92	23341ca4e4830bee	65152	597702	8320	36992	31280	1	101019	34992
84.92	23341ca4e4830bee	65152	597894	8192	36992	31280	1	101023	34992
84.92	23341ca4e4830bee	65168	598117	8192	37072	31264	1	101019	35216
84.92	23341ca4e4830bee	65168	598308	8192	37072	31264	1	101019	35216
84.92	23341ca4e4830bee	65168	598499	8192	37072	31264	1	101019	35216
84.92	23341ca4e4830bee	65200	598691	8320	37072	31200	1	101031	35280
84.92	23341ca4e4830bee	65200	598882	8320	37072	31200	0	101019	35280
84.92	23341ca4e4830bee	65200	599073	8320	37072	31200	0	101023	35280
84.92	23341ca4e4830bee	65200	599264	8320	37072	31200	0	101031	35280
84.92	23341ca4e4830bee	65200	599445	8320	37040	31280	1	101021	35008
84.92	23341ca4e4830bee	65200	599636	8320	37040	31280	1	101019	35008
84.92	23341ca4e4830bee	65200	599827	8320	37040	31280	0	101025	35008
84.92	23341ca4e4830bee	65200	600018	8320	37040	31280	0	101019	35008
84.92	23341ca4e4830bee	65200	600229	8320	37056	31264	0	101019	34992
84.92	23341ca4e4830bee	65200	600420	8320	37056	31264	0	101019	34992
84.92	23341ca4e4830bee	65200	600611	8320	37056	31264	1	101013	34992
84.92	23341ca4e4830bee	65184	600803	8192	37056	31264	1	101017	35008
84.92	23341ca4e4830bee	65184	600994	8192	37056	31248	0	101025	35008
84.92	23341ca4e4830bee	65184	601175	8192	37056	31248	0	101019	35008
84.92	23341ca4e4830bee	65184	601366	8192	37056	31248	1	101017	35008
84.74	23341ca4e4830bee	65200	601558	8320	37024	31248	1	101017	35136
84.92	23341ca4e4830bee	65200	601749	8320	37024	31216	0	101023	35136
84.92	23341ca4e4830bee	65200	601992	8320	37024	31216	0	101023	35136
84.92	23341ca4e4830bee	65200	602183	8320	37024	31216	0	101023	35136
84.92	23341ca4e4830bee	65200	602374	8320	37072	31232	0	101025	35296
84.92	23341ca4e4830bee	65200	602555	8320	37072	31232	0	101023	35296
84.92	23341ca4e4830bee	65200	602747	8320	37072	31232	0	101017	35296
84.92	23341ca4e4830bee	65200	602938	8320	37072	31232	0	101021	35296
84.92	23341ca4e4830bee	65200	603129	8320	37056	31216	0	101017	35056
84.92	23341ca4e4830bee	65200	603320	8320	37056	31216	0	101023	35056
84.92	23341ca4e4830bee	65200	603515	8320	37056	31216	0	101021	35056
84.92	23341ca4e4830bee	65200	603696	8320	37056	31216	0	101017	35280
84.92	23341ca4e4830bee	65200	603887	8320	37056	31248	0	101021	35280
84.92	23341ca4e4830bee	65200	604078	8320	37056	31248	0	101019	35280
84.92	23341ca4e4830bee	65200	604269	8320	37056	31248	0	101017	35280
84.92	23341ca4e4830bee	65184	604460	8320	37088	31248	0	101017	35248
84.92	23341ca4e4830bee	65184	604652	8320	37088	31248	0	101021	35248
84.92	23341ca4e4830bee	65184	604843	8320	37088	31248	0	101021	35248
84.92	23341ca4e4830bee	65184	605034	8320	37088	31248	0	101027	35248
84.92	23341ca4e4830bee	65200	605215	8320	37088	31264	0	101019	35264
84.92	23341ca4e4830bee	65200	605406	8320	37088	31264	0	101021	35264
84.92	23341ca4e4830bee	65200	605598	8320	37088	31264	0	101017	35264
84.92	23341ca4e4830bee	65200	605837	8320	37088	31264	1	101025	35264
84.92	23341ca4e4830bee	65264	606028	8320	37216	30592	1	101027	35168
84.92	23341ca4e4830bee	65264	606219	8320	37216	30592	1	101021	35168
84.92	23341ca4e4830bee	65264	606410	8320	37216	30592	1	101025	35168
84.92	23341ca4e4830bee	64544	606601	8320	37216	30592	1	101021	35264
84.92	23341ca4e4830bee	64544	606792	8320	36784	30864	1	101025	35264
84.92	23341ca4e4830bee	64544	606983	8320	36784	30864	1	101015	35264
84.92	23341ca4e4830bee	64544	607174	8320	36784	30864	1	101021	35264
84.92	23341ca4e4830bee	64576	607365	8320	36208	30736	1	101023	35248
84.92	23341ca4e4830bee	64576	607556	8320	36208	30736	1	101025	35248
84.92	23341ca4e4830bee	64576	607748	8320	36208	30736	1	101025	35248
84.92	23341ca4e4830bee	64576	607939	8320	36208	30736	0	101025	35248
84.92	23341ca4e4830bee	65360	608130	8320	35984	30816	1	101017	35024
84.92	23341ca4e4830bee	65360	608333	8320	35984	30816	1	101017	35024
84.92	23341ca4e4830bee	65360	608537	8320	35984	30816	1	101025	35024
84.92	23341ca4e4830bee	65360	608728	8192	35984	30816	1	101015	35024
84.92	23341ca4e4830bee	65328	608919	8192	36304	31184	1	101025	35008
84.92	23341ca4e4830bee	65328	609110	8192	36304	31184	1	101019	35008
84.92	23341ca4e4830bee	65328	609302	8192	36304	31184	1	101025	35008
84.92	23341ca4e4830bee	65360	609493	8320	36304	31184	1	101023	35264
84.92	23341ca4e4830bee	65360	609727	8320	36304	31184	1	101019	35264
84.92	23341ca4e4830bee	65360	609918	8320	36304	31184	1	101021	35264
84.92	23341ca4e4830bee	65360	610109	8320	36304	31184	1	101021	35264
84.92	23341ca4e4830bee	65376	610300	8320	36512	31216	0	101021	35232
84.92	23341ca4e4830bee	65376	610492	8320	36512	31216	1	101033	35232
84.92	23341ca4e4830bee	65376	610683	8320	36512	31216	1	101021	35232
84.92	23341ca4e4830bee	65376	610874	8320	36512	31216	0	101025	35232
84.92	23341ca4e4830bee	65376	611065	8320	36480	31248	1	101025	34992
84.92	23341ca4e4830bee	65376	611247	8320	36480	31248	1	101025	34992
84.92	23341ca4e4830bee	65376	611438	8320	36480	31248	1	101023	34992
84.92	23341ca4e4830bee	65376	611629	8320	36480	31248	1	101021	35136
84.92	23341ca4e4830bee	65376	611820	8320	36480	31216	1	101015	35136
84.92	23341ca4e4830bee	65376	612011	8320	36480	31216	1	101015	35136
84.92	23341ca4e4830bee	65376	612202	8320	36480	31216	1	101021	35136
84.92	23341ca4e4830bee	65376	612394	8320	36480	31216	0	101021	35248
84.92	23341ca4e4830bee	65376	612585	8320	36480	31184	0	101023	35248
84.92	23341ca4e4830bee	65376	612776	8320	36480	31184	0	101017	35248
84.92	23341ca4e4830bee	65376	612967	8320	36480	31184	0	101023	35248
84.92	23341ca4e4830bee	65376	613158	8320	36528	31216	0	101011	35152
84.92	23341ca4e4830bee	65376	613350	8320	36528	31216	0	101017	35152
84.92	23341ca4e4830bee	65376	613589	8320	36528	31216	0	101013	35152
84.92	23341ca4e4830bee	65376	613780	8320	36528	31216	0	101027	35152
84.92	23341ca4e4830bee	65376	613971	8320	36528	31216	0	101023	35120
84.92	23341ca4e4830bee	65376	614162	8320	36528	31216	0	101025	35120
84.92	23341ca4e4830bee	65376	614353	8320	36528	31216	0	101027	35120
84.92	23341ca4e4830bee	65376	614544	8320	36528	31216	0	101023	35056
84.92	23341ca4e4830bee	65376	614735	8320	36480	31200	0	101015	35056
84.92	23341ca4e4830bee	65376	614926	8320	36480	31200	0	101019	35056
84.92	23341ca4e4830bee	65376	615117	8320	36480	31200	0	101017	35056
84.92	23341ca4e4830bee	65376	615309	8320	36512	31264	0	101023	35008
84.92	23341ca4e4830bee	65376	615500	8320	36512	31264	0	101027	35008
84.92	23341ca4e4830bee	65376	615691	8320	36512	31264	0	101025	35008
84.92	23341ca4e4830bee	65376	615882	8320	36512	31264	0	101017	35008
84.92	23341ca4e4830bee	65376	616073	8320	36512	31232	0	101017	35216
84.92	23341ca4e4830bee	65376	616264	8320	36512	31232	0	101027	35216
84.92	23341ca4e4830bee	65376	616455	8320	36512	31232	0	101015	35216
84.92	23341ca4e4830bee	65376	616637	8320	36512	31232	0	101017	35216
84.92	23341ca4e4830bee	65376	616828	8320	36528	31216	0	101021	35056
84.92	23341ca4e4830bee	65376	617019	8320	36528	31216	0	101015	35056
84.92	23341ca4e4830bee	65376	617210	8320	36528	31216	0	101025	35056
84.92	23341ca4e4830bee	65376	617454	8320	36512	31232	0	101021	35264
84.92	23341ca4e4830bee	65376	617645	8320	36512	31232	0	101015	35264
84.92	23341ca4e4830bee	65376	617836	8320	36512	31232	0	101013	35264
84.92	23341ca4e4830bee	65376	618017	8320	36512	31232	0	101023	35264
84.92	23341ca4e4830bee	65392	618208	8320	36512	31200	0	101011	35280
84.92	23341ca4e4830bee	65392	618399	8320	36512	31200	0	101025	35280
84.92	23341ca4e4830bee	65392	618590	8320	36512	31200	0	101021	35280
84.92	23341ca4e4830bee	65392	618781	8320	36512	31200	0	101021	35280
84.92	23341ca4e4830bee	65376	618973	8320	36496	31264	0	101023	35008
84.92	23341ca4e4830bee	65376	619164	8320	36496	31264	0	101025	35008
84.92	23341ca4e4830bee	65376	619355	8320	36496	31264	0	101019	35008
84.92	23341ca4e4830bee	65376	619546	8320	36496	31264	0	101025	35008
84.92	23341ca4e4830bee	65376	619727	8320	36496	31232	0	101021	35264
84.92	23341ca4e4830bee	65376	619918	8320	36496	31232	0	101029	35264
84.92	23341ca4e4830bee	65376	620109	8320	36496	31232	0	101031	35264
84.92	23341ca4e4830bee	65376	620300	8448	36496	31232	0	101027	35008
84.92	23341ca4e4830bee	65376	620492	8448	36512	31248	0	101009	35008
84.92	23341ca4e4830bee	65376	620683	8448	36512	31248	0	101023	35008
84.92	23341ca4e4830bee	65376	620874	8448	36512	31248	0	101029	35008
84.92	23341ca4e4830bee	65376	621066	8320	36496	31216	0	101017	35088
84.92	23341ca4e4830bee	65376	621294	8320	36496	31216	0	101013	35088
84.92	23341ca4e4830bee	65376	621485	8320	36496	31216	0	101019	35088
84.92	23341ca4e4830bee	65376	621676	8320	36496	31216	0	101021	35088
84.92	23341ca4e4830bee	65376	621857	8320	36512	31248	0	101017	35120
84.92	23341ca4e4830bee	65376	622048	8320	36512	31248	0	101019	35120
84.92	23341ca4e4830bee	65376	622240	8320	36512	31248	0	101019	35120
84.92	23341ca4e4830bee	65376	622431	8320	36512	31248	0	101019	35120
84.92	23341ca4e4830bee	65392	622622	8320	36512	31232	0	101019	35248
84.92	23341ca4e4830bee	65392	622813	8320	36512	31232	0	101025	35248
84.92	23341ca4e4830bee	65392	623005	8320	36512	31232	0	101017	35248
84.92	23341ca4e4830bee	65376	623196	8320	36512	31232	0	101017	35280
84.92	23341ca4e4830bee	65376	623387	8320	36512	31248	0	101019	35280
85.1	23341ca4e4830bee	65376	623568	8320	36512	31248	0	101033	35280
85.1	23341ca4e4830bee	65376	623759	8320	36512	31248	0	101015	35280
84.92	23341ca4e4830bee	65376	623950	8320	36480	31248	0	101025	35280
85.1	23341ca4e4830bee	65376	624141	8320	36480	31232	0	101023	35280
85.1	23341ca4e4830bee	65376	624339	8320	36480	31232	0	101021	35280
85.1	23341ca4e4830bee	65376	624541	8320	36480	31232	0	101011	35280
85.1	23341ca4e4830bee	65392	624732	8320	36512	31232	0	101023	35120
85.1	23341ca4e4830bee	65392	624923	8320	36512	31232	0	101023	35120
85.1	23341ca4e4830bee	65392	625166	8320	36512	31232	0	101021	35120
84.92	23341ca4e4830bee	65392	625357	8320	36512	31232	0	101023	35264
85.1	23341ca4e4830bee	65376	625538	8320	36496	31200	0	101021	35264
85.1	23341ca4e4830bee	65376	625729	8320	36496	31200	0	101017	35264
85.1	23341ca4e4830bee	65376	625920	8320	36496	31200	0	101021	35264
85.1	23341ca4e4830bee	65376	626111	8320	36464	31200	0	101031	35248
85.1	23341ca4e4830bee	65376	626302	8320	36464	31296	0	101023	35248
85.1	23341ca4e4830bee	65376	626494	8320	36464	31296	0	101023	35248
85.1	23341ca4e4830bee	65376	626685	8320	36464	31296	0	101021	35248
85.1	23341ca4e4830bee	65376	626876	8320	36480	31248	0	101023	35264
85.1	23341ca4e4830bee	65376	627067	8320	36480	31248	0	101025	35264
85.1	23341ca4e4830bee	65376	627249	8320	36480	31248	0	101017	35264
85.1	23341ca4e4830bee	65376	627440	8320	36480	31248	0	101011	35264
85.1	23341ca4e4830bee	65376	627631	8320	36496	31264	0	101021	35040
85.1	23341ca4e4830bee	65376	627822	8320	36496	31264	0	101025	35040
85.1	23341ca4e4830bee	65376	628014	8320	36496	31264	0	101021	35040
85.1	23341ca4e4830bee	65376	628205	8320	36496	31264	0	101011	35040
85.1	23341ca4e4830bee	65392	628396	8320	36448	31232	0	101029	35120
85.1	23341ca4e4830bee	65392	628587	8320	36448	31232	0	101015	35120
85.1	23341ca4e4830bee	65392	628768	8320	36448	31232	0	101015	35120
85.1	23341ca4e4830bee	65392	628999	8320	36480	31232	0	101023	35264
85.1	23341ca4e4830bee	65392	629190	8320	36480	31232	0	101023	35264
85.1	23341ca4e4830bee	65392	629381	8320	36480	31232	0	101013	35264
85.1	23341ca4e4830bee	65392	629572	8320	36480	31232	0	101013	35264
85.1	23341ca4e4830bee	65392	629763	8320	36496	31248	0	101011	34992
85.1	23341ca4e4830bee	65392	629954	8320	36496	31248	0	101013	34992
85.1	23341ca4e4830bee	65392	630146	8320	36496	31248	0	101021	34992
85.1	23341ca4e4830bee	65392	630337	8320	36496	31248	0	101023	34992
85.1	23341ca4e4830bee	65392	630528	8320	36512	31264	0	101023	35264
85.1	23341ca4e4830bee	65392	630709	8320	36512	31264	0	101025	35264
85.1	23341ca4e4830bee	65392	630900	8320	36512	31264	0	101021	35264
85.1	23341ca4e4830bee	65392	631091	8320	36512	31264	0	101017	35264
85.1	23341ca4e4830bee	65392	631282	8320	36496	31264	0	101021	35136
85.1	23341ca4e4830bee	65392	631473	8320	36496	31264	0	101021	35136
85.1	23341ca4e4830bee	65392	631664	8320	36496	31264	0	101017	35136
85.1	23341ca4e4830bee	65392	631856	8320	36496	31264	0	101017	35008
85.1	23341ca4e4830bee	65392	632047	8320	36480	31248	0	101015	35008
85.1	23341ca4e4830bee	65392	632238	8320	36480	31248	0	101021	35008
85.1	23341ca4e4830bee	65392	632429	8320	36480	31248	0	101021	35008
85.1	23341ca4e4830bee	65392	632621	8320	36496	31248	0	101021	35248
85.1	23341ca4e4830bee	65392	632861	8320	36496	31232	0	101015	35248
85.1	23341ca4e4830bee	65392	633052	8320	36496	31232	0	101021	35248
85.1	23341ca4e4830bee	65392	633244	8320	36496	31232	0	101021	35248
85.1	23341ca4e4830bee	65392	633435	8320	36480	31312	0	101025	35072
85.1	23341ca4e4830bee	65392	633626	8320	36480	31312	0	101019	35072
85.1	23341ca4e4830bee	65392	633817	8320	36480	31312	1	101023	35072
85.1	23341ca4e4830bee	65392	634008	8320	36480	31312	1	101025	35072
85.1	23341ca4e4830bee	65056	634200	8320	36704	30656	0	101023	35168
85.1	23341ca4e4830bee	65056	634391	8320	36704	30656	1	101023	35168
85.1	23341ca4e4830bee	65056	634582	8320	36704	30656	0	101023	35168
85.1	23341ca4e4830bee	63792	634773	8320	36704	30656	1	101021	35216
85.1	23341ca4e4830bee	63792	634964	8320	37808	30560	1	101021	35216
85.1	23341ca4e4830bee	63792	635155	8320	37808	30560	0	101015	35216
85.1	23341ca4e4830bee	63792	635346	8320	37808	30560	1	101023	35216
85.1	23341ca4e4830bee	63344	635538	8320	37856	30560	1	101023	35056
85.1	23341ca4e4830bee	63344	635719	8320	37856	30560	1	101021	35056
85.1	23341ca4e4830bee	63344	635910	8320	37856	30560	1	101017	35056
85.1	23341ca4e4830bee	63344	636101	8320	37856	30560	1	101017	35056
85.1	23341ca4e4830bee	63120	636292	8320	37872	30592	1	101025	35072
85.1	23341ca4e4830bee	63120	636484	8320	37872	30592	0	101017	35072
85.1	23341ca4e4830bee	63120	636723	8320	37872	30592	0	101025	35072
85.1	23341ca4e4830bee	63120	636914	8320	37872	30592	0	101021	35008
85.1	23341ca4e4830bee	62976	637105	8320	37856	30560	0	101023	35008
85.1	23341ca4e4830bee	62976	637296	8320	37856	30560	0	101015	35008
85.1	23341ca4e4830bee	62976	637488	8320	37856	30560	0	101025	35008
85.1	23341ca4e4830bee	62928	637679	8320	37872	30576	0	101021	35104
85.1	23341ca4e4830bee	62928	637860	8320	37872	30576	0	101023	35104
85.1	23341ca4e4830bee	62928	638051	8320	37872	30576	0	101023	35104
85.1	23341ca4e4830bee	62928	638243	8320	37872	30576	0	101021	35104
85.1	23341ca4e4830bee	62928	638434	8320	37840	30576	0	101019	34976
85.1	23341ca4e4830bee	62928	638625	8320	37840	30576	0	101015	34976
85.1	23341ca4e4830bee	62928	638816	8320	37840	30576	0	101015	34976
85.1	23341ca4e4830bee	62928	639007	8320	37840	30576	0	101025	34976
85.1	23341ca4e4830bee	62912	639198	8320	37840	30592	0	101023	35040
85.1	23341ca4e4830bee	62912	639379	8320	37840	30592	0	101015	35040
85.1	23341ca4e4830bee	62912	639571	8320	37840	30592	0	101023	35040
85.1	23341ca4e4830bee	62912	639762	8320	37840	30592	0	101023	35040
85.1	23341ca4e4830bee	62912	639953	8320	37856	30592	0	101009	35280
85.1	23341ca4e4830bee	62912	640144	8320	37856	30592	0	101021	35280
85.1	23341ca4e4830bee	62912	640335	8320	37856	30592	0	101021	35280
85.1	23341ca4e4830bee	62896	640573	8320	37888	30544	0	101021	35040
85.1	23341ca4e4830bee	62896	640764	8320	37888	30544	0	101023	35040
85.1	23341ca4e4830bee	62896	640955	8320	37888	30544	0	101017	35040
85.1	23341ca4e4830bee	62896	641151	8320	37888	30544	0	101021	35040
85.1	23341ca4e4830bee	62896	641342	8320	37872	30608	0	101021	35200
85.1	23341ca4e4830bee	62896	641533	8320	37872	30608	0	101021	35200
85.1	23341ca4e4830bee	62896	641724	8320	37872	30608	0	101017	35200
85.1	23341ca4e4830bee	62896	641915	8320	37872	30608	0	101017	35200
85.1	23341ca4e4830bee	62880	642114	8320	37856	30576	0	101021	34960
85.1	23341ca4e4830bee	62880	642305	8320	37856	30576	0	101019	34960
85.1	23341ca4e4830bee	62880	642496	8320	37856	30576	0	101021	34960
85.1	23341ca4e4830bee	62880	642688	8320	37856	30576	0	101031	35296
85.1	23341ca4e4830bee	62896	642892	8320	37856	30544	0	101025	35296
85.1	23341ca4e4830bee	62896	643083	8320	37856	30544	0	101019	35296
85.1	23341ca4e4830bee	62896	643274	8320	37856	30544	0	101021	35296
85.1	23341ca4e4830bee	62896	643465	8320	37872	30576	0	101019	34976
85.1	23341ca4e4830bee	62896	643666	8320	37872	30576	0	101019	34976
85.1	23341ca4e4830bee	62896	643857	8320	37872	30576	0	101019	34976
85.1	23341ca4e4830bee	62896	644048	8320	37872	30576	0	101025	34976
85.1	23341ca4e4830bee	62880	644239	8320	37856	30576	0	101015	35168
85.1	23341ca4e4830bee	62880	644457	8320	37856	30576	0	101031	35168
85.1	23341ca4e4830bee	62880	644648	8320	37856	30576	0	101019	35168
85.1	23341ca4e4830bee	62880	644840	8320	37856	30576	0	101019	35168
85.1	23341ca4e4830bee	62880	645021	8320	37856	30528	0	101017	35088
85.1	23341ca4e4830bee	62880	645232	8320	37856	30528	0	101021	35088
85.1	23341ca4e4830bee	62880	645423	8320	37856	30528	0	101027	35088
85.1	23341ca4e4830bee	62880	645614	8320	37872	30528	0	101025	35072
85.1	23341ca4e4830bee	62880	645805	8320	37872	30576	0	101021	35072
85.1	23341ca4e4830bee	62880	645996	8320	37872	30576	0	101019	35072
85.1	23341ca4e4830bee	62880	646187	8320	37872	30576	0	101015	35072
85.1	23341ca4e4830bee	62880	646378	8320	37856	30544	0	101021	35056
85.1	23341ca4e4830bee	62880	646570	8320	37856	30544	0	101019	35056
85.1	23341ca4e4830bee	62880	646751	8320	37856	30544	0	101017	35056
85.1	23341ca4e4830bee	62880	646942	8320	37856	30544	0	101019	35056
85.1	23341ca4e4830bee	62880	647133	8320	37840	30592	0	101019	35120
85.1	23341ca4e4830bee	62880	647325	8320	37840	30592	0	101019	35120
85.1	23341ca4e4830bee	62880	647516	8320	37840	30592	0	101023	35120
85.1	23341ca4e4830bee	62880	647707	8320	37840	30592	0	101015	35120
85.1	23341ca4e4830bee	62880	647898	8320	37872	30592	0	101019	35200
85.1	23341ca4e4830bee	62880	648089	8320	37872	30592	0	101017	35200
85.1	23341ca4e4830bee	62880	648321	8320	37872	30592	0	101019	35200
85.1	23341ca4e4830bee	62880	648512	8320	37872	30592	0	101023	34992
85.1	23341ca4e4830bee	62880	648703	8320	37872	30576	0	101007	34992
85.1	23341ca4e4830bee	62880	648894	8320	37872	30576	0	101023	34992
85.1	23341ca4e4830bee	62880	649085	8320	37872	30576	0	101017	34992
85.1	23341ca4e4830bee	62880	649276	8320	37872	30576	0	101009	35152
85.1	23341ca4e4830bee	62880	649467	8320	37872	30576	0	101021	35152
85.28	23341ca4e4830bee	62880	649658	8320	37872	30576	0	101023	35152
85.28	23341ca4e4830bee	62880	649849	8320	37872	30576	0	101021	35152
85.1	23341ca4e4830bee	62880	650040	8320	37872	30560	0	101017	35168
85.28	23341ca4e4830bee	62880	650221	8320	37872	30560	0	101019	35168
85.28	23341ca4e4830bee	62880	650413	8320	37872	30560	0	101015	35168
85.1	23341ca4e4830bee	62880	650604	8320	37872	30560	0	101017	35168
85.28	23341ca4e4830bee	62880	650795	8320	37840	30608	0	101019	35264
85.28	23341ca4e4830bee	62880	650986	8320	37840	30608	0	101013	35264
85.28	23341ca4e4830bee	62880	651177	8320	37840	30608	0	101025	35264
85.28	23341ca4e4830bee	62880	651368	8320	37840	30608	0	101023	35264
85.1	23341ca4e4830bee	62880	651560	8320	37856	30560	0	101017	35264
85.28	23341ca4e4830bee	62880	651751	8320	37856	30560	0	101019	35264
85.28	23341ca4e4830bee	62880	651942	8320	37856	30560	0	101025	35264
85.28	23341ca4e4830bee	62880	652183	8320	37888	30544	0	101019	35344
85.28	23341ca4e4830bee	62880	652374	8320	37888	30544	0	101019	35344
85.28	23341ca4e4830bee	62880	652565	8320	37888	30544	0	101013	35344
85.28	23341ca4e4830bee	62880	652756	8320	37888	30544	0	101029	35344
85.28	23341ca4e4830bee	62880	652947	8320	37856	30544	0	101019	35072
85.28	23341ca4e4830bee	62880	653138	8320	37856	30544	0	101019	35072
85.1	23341ca4e4830bee	62880	653329	8320	37856	30544	0	101011	35072
85.28	23341ca4e4830bee	62880	653520	8448	37856	30544	0	101021	35248
85.28	23341ca4e4830bee	62880	653711	8448	37872	30544	0	101021	35248
85.28	23341ca4e4830bee	62880	653902	8448	37872	30544	0	101025	35248
85.28	23341ca4e4830bee	62880	654093	8448	37872	30544	0	101025	35248
85.28	23341ca4e4830bee	62880	654284	8448	37824	30544	0	101027	35136
85.28	23341ca4e4830bee	62880	654476	8448	37824	30576	0	101019	35136
85.28	23341ca4e4830bee	62880	654667	8448	37824	30576	0	101021	35136
85.28	23341ca4e4830bee	62880	654858	8448	37824	30576	0	101027	35136
85.28	23341ca4e4830bee	62880	655049	8448	37856	30576	0	101019	34960
85.28	23341ca4e4830bee	62880	655240	8448	37856	30576	0	101019	34960
85.28	23341ca4e4830bee	62880	655421	8448	37856	30576	0	101019	34960
85.28	23341ca4e4830bee	62880	655613	8448	37856	30576	0	101021	34960
85.28	23341ca4e4830bee	62880	655804	8448	37904	30576	0	101025	35168
85.28	23341ca4e4830bee	62880	656046	8448	37904	30576	0	101023	35168
85.28	23341ca4e4830bee	62880	656237	8448	37904	30576	0	101029	35168
85.28	23341ca4e4830bee	62880	656428	8448	37904	30576	0	101031	35104
85.28	23341ca4e4830bee	62880	656619	8448	37840	30608	0	101029	35104
85.28	23341ca4e4830bee	62880	656811	8448	37840	30608	0	101019	35104
85.28	23341ca4e4830bee	62880	656992	8448	37840	30608	0	101017	35104
85.28	23341ca4e4830bee	62880	657183	8448	37856	30592	0	101035	35232
85.28	23341ca4e4830bee	62880	657374	8448	37856	30592	0	101023	35232
85.28	23341ca4e4830bee	62880	657565	8448	37856	30592	0	101019	35232
85.28	23341ca4e4830bee	62880	657756	8448	37856	30592	0	101019	35232
85.28	23341ca4e4830bee	62880	657947	8448	37856	30576	0	101029	35248
85.28	23341ca4e4830bee	62880	658138	8448	37856	30576	0	101023	35248
85.28	23341ca4e4830bee	62880	658329	8448	37856	30576	0	101023	35248
85.28	23341ca4e4830bee	62880	658521	8448	37856	30576	0	101033	35248
85.28	23341ca4e4830bee	62880	658702	8320	37856	30576	0	101011	35264
85.28	23341ca4e4830bee	62880	658893	8320	37856	30576	0	101017	35264
85.28	23341ca4e4830bee	62880	659084	8320	37856	30576	0	101023	35264
85.28	23341ca4e4830bee	62880	659275	8448	37856	30576	0	101011	35264
85.28	23341ca4e4830bee	62880	659466	8448	37872	30576	0	101023	35104
85.28	23341ca4e4830bee	62880	659658	8448	37872	30576	0	101023	35104
85.28	23341ca4e4830bee	62880	659897	8448	37872	30576	0	101021	35104
85.28	23341ca4e4830bee	62880	660088	8320	37872	30592	0	101027	35136
85.28	23341ca4e4830bee	62880	660286	8320	37872	30592	0	101027	35136
85.28	23341ca4e4830bee	62880	660477	8320	37872	30592	0	101029	35136
85.28	23341ca4e4830bee	62880	660668	8320	37872	30592	0	101021	35136
85.28	23341ca4e4830bee	62880	660859	8448	37856	30592	0	101023	35280
85.28	23341ca4e4830bee	62880	661050	8448	37856	30592	0	101027	35280
85.28	23341ca4e4830bee	62880	661241	8448	37856	30592	0	101013	35280
85.28	23341ca4e4830bee	62880	661423	8448	37856	30592	0	101019	35280
85.28	23341ca4e4830bee	62880	661614	8320	37856	30592	0	101027	35248
85.28	23341ca4e4830bee	62880	661805	8320	37856	30592	0	101021	35248
85.28	23341ca4e4830bee	62880	661996	8320	37856	30592	0	101029	35248
85.28	23341ca4e4830bee	62880	662187	8448	37856	30592	0	101015	35248
85.28	23341ca4e4830bee	62880	662378	8448	37888	30576	0	101015	35248
85.28	23341ca4e4830bee	62880	662570	8448	37888	30576	0	101031	35248
85.28	23341ca4e4830bee	62880	662761	8448	37888	30576	0	101025	35248
85.28	23341ca4e4830bee	62880	662952	8448	37840	30576	0	101029	35232
85.28	23341ca4e4830bee	62880	663143	8448	37840	30544	0	101027	35232
85.28	23341ca4e4830bee	62880	663335	8448	37840	30544	0	101031	35232
85.28	23341ca4e4830bee	62880	663526	8448	37840	30544	0	101027	35232
85.28	23341ca4e4830bee	62880	663770	8320	37824	30576	0	101025	35216
85.28	23341ca4e4830bee	62880	663961	8320	37824	30576	0	101017	35216
85.28	23341ca4e4830bee	62880	664152	8320	37824	30576	0	101027	35216
85.28	23341ca4e4830bee	62880	664333	8320	37824	30576	0	101025	35216
85.28	23341ca4e4830bee	62880	664524	8320	37856	30592	0	101021	35072
85.28	23341ca4e4830bee	62880	664715	8320	37856	30592	0	101031	35072
85.28	23341ca4e4830bee	62880	664906	8320	37856	30592	0	101021	35072
85.28	23341ca4e4830bee	62880	665097	8448	37856	30592	0	101021	35088
85.28	23341ca4e4830bee	62880	665288	8448	37888	30560	0	101027	35088
85.28	23341ca4e4830bee	62880	665479	8448	37888	30560	0	101019	35088
85.28	23341ca4e4830bee	62880	665670	8448	37888	30560	0	101021	35088
85.28	23341ca4e4830bee	62880	665862	8320	37872	30576	0	101019	35184
85.28	23341ca4e4830bee	62880	666043	8320	37872	30576	0	101027	35184
85.28	23341ca4e4830bee	62880	666234	8320	37872	30576	0	101029	35184
85.28	23341ca4e4830bee	62880	666425	8320	37872	30576	0	101015	35184
85.28	23341ca4e4830bee	62880	666616	8448	37840	30576	0	101021	35280
85.28	23341ca4e4830bee	62880	666807	8448	37840	30576	0	101021	35280
85.28	23341ca4e4830bee	62880	666999	8448	37840	30576	0	101021	35280
85.28	23341ca4e4830bee	62880	667190	8448	37840	30576	0	101025	35280
85.28	23341ca4e4830bee	62880	667381	8448	37888	30560	0	101021	35232