Digit_temp	id	light	timestamp	acc_z	acc_y	acc_x	motion	pressure	humid
86.0	23341ca4e4830bee	61904	1927527	8576	32432	25408	0	101015	35200
85.82	23341ca4e4830bee	61904	1927718	8576	32432	25408	0	101009	35200
85.82	23341ca4e4830bee	61904	1927909	8576	32432	25408	0	101007	35200
85.82	23341ca4e4830bee	61904	1928090	8576	32432	25408	0	101013	35200
85.82	23341ca4e4830bee	61904	1928281	8576	32416	25440	0	101011	35072
85.82	23341ca4e4830bee	61904	1928472	8576	32416	25440	0	101001	35072
85.82	23341ca4e4830bee	61904	1928663	8576	32416	25440	0	101011	35072
85.82	23341ca4e4830bee	61904	1928854	8448	32416	25440	0	101015	35072
85.82	23341ca4e4830bee	61904	1929045	8448	32448	25440	0	101009	35264
85.82	23341ca4e4830bee	61904	1929236	8448	32448	25440	0	101011	35264
85.82	23341ca4e4830bee	61904	1929427	8448	32448	25440	0	101013	35264
85.82	23341ca4e4830bee	61904	1929618	8448	32448	25440	0	101007	34960
85.82	23341ca4e4830bee	61904	1929809	8448	32448	25456	0	101007	34960
85.82	23341ca4e4830bee	61904	1929990	8448	32448	25456	0	101007	34960
85.82	23341ca4e4830bee	61904	1930181	8448	32448	25456	0	101009	34960
85.82	23341ca4e4830bee	61904	1930373	8448	32416	25456	0	101013	34992
85.82	23341ca4e4830bee	61904	1930564	8448	32416	25456	0	101013	34992
85.82	23341ca4e4830bee	61904	1930755	8448	32416	25456	0	101025	34992
85.82	23341ca4e4830bee	61904	1930946	8448	32416	25456	0	101007	34992
85.82	23341ca4e4830bee	61904	1931137	8576	32416	25456	0	101009	35136
85.82	23341ca4e4830bee	61904	1931374	8576	32416	25456	0	101019	35136
85.82	23341ca4e4830bee	61904	1931565	8576	32416	25456	0	101005	35136
85.82	23341ca4e4830bee	61904	1931756	8576	32416	25456	0	101011	35136
85.82	23341ca4e4830bee	61904	1931947	8576	32416	25440	0	101013	35248
85.82	23341ca4e4830bee	61904	1932138	8576	32416	25440	0	101011	35248
85.82	23341ca4e4830bee	61904	1932330	8576	32416	25440	0	101005	35248
85.82	23341ca4e4830bee	61904	1932511	8576	32416	25440	0	101011	35360
85.82	23341ca4e4830bee	61904	1932702	8576	32432	25456	0	101013	35360
85.82	23341ca4e4830bee	61904	1932893	8576	32432	25456	0	101007	35360
85.82	23341ca4e4830bee	61904	1933084	8576	32432	25456	0	101009	35360
85.82	23341ca4e4830bee	61904	1933275	8448	32416	25424	0	101009	35312
85.82	23341ca4e4830bee	61904	1933466	8448	32416	25424	0	101013	35312
85.82	23341ca4e4830bee	61904	1933657	8448	32416	25424	0	101007	35312
85.82	23341ca4e4830bee	61904	1933848	8448	32416	25424	0	101007	35312
85.82	23341ca4e4830bee	61904	1934040	8576	32448	25456	0	100999	35024
85.82	23341ca4e4830bee	61904	1934221	8576	32448	25456	0	101013	35024
85.82	23341ca4e4830bee	61904	1934412	8576	32448	25456	0	101013	35024
85.82	23341ca4e4830bee	61904	1934603	8576	32448	25456	0	101013	35024
85.82	23341ca4e4830bee	61904	1934794	8448	32416	25440	0	101011	35104
85.82	23341ca4e4830bee	61904	1934986	8448	32416	25440	0	101005	35104
85.82	23341ca4e4830bee	61904	1935233	8448	32416	25440	0	101011	35104
85.82	23341ca4e4830bee	61904	1935424	8576	32432	25440	0	101019	35248
85.82	23341ca4e4830bee	61904	1935615	8576	32432	25472	0	101007	35248
85.82	23341ca4e4830bee	61904	1935807	8576	32432	25472	0	101007	35248
85.82	23341ca4e4830bee	61904	1935998	8576	32432	25472	0	101011	35248
85.82	23341ca4e4830bee	61904	1936189	8448	32432	25456	0	101013	35264
85.82	23341ca4e4830bee	61904	1936380	8448	32432	25456	0	101013	35264
85.82	23341ca4e4830bee	61904	1936571	8448	32432	25456	0	101013	35264
85.82	23341ca4e4830bee	61904	1936763	8448	32432	25456	0	101007	35264
85.82	23341ca4e4830bee	61904	1936954	8448	32432	25440	0	101007	34976
86.0	23341ca4e4830bee	61904	1937145	8448	32432	25440	0	101011	34976
85.82	23341ca4e4830bee	61904	1937336	8448	32432	25440	0	101007	34976
85.82	23341ca4e4830bee	61904	1937527	8576	32432	25440	0	101007	34976
85.82	23341ca4e4830bee	61904	1937718	8576	32416	25440	0	101013	34992
85.82	23341ca4e4830bee	61904	1937909	8576	32416	25440	0	101011	34992
85.82	23341ca4e4830bee	61904	1938101	8576	32416	25440	0	101011	34992
86.0	23341ca4e4830bee	61920	1938292	8576	32416	25440	0	101007	35072
86.0	23341ca4e4830bee	61920	1938483	8576	32432	25456	0	101013	35072
86.0	23341ca4e4830bee	61920	1938674	8576	32432	25456	0	101011	35072
86.0	23341ca4e4830bee	61920	1938865	8576	32432	25456	0	101015	35072
85.82	23341ca4e4830bee	61920	1939103	8448	32416	25424	0	101017	35040
85.82	23341ca4e4830bee	61920	1939294	8448	32416	25424	0	101013	35040
85.82	23341ca4e4830bee	61920	1939485	8448	32416	25424	0	101013	35040
85.82	23341ca4e4830bee	61920	1939676	8448	32416	25424	0	101011	35040
85.82	23341ca4e4830bee	61920	1939867	8448	32416	25440	0	101019	34992
85.82	23341ca4e4830bee	61920	1940058	8448	32416	25440	0	101013	34992
85.82	23341ca4e4830bee	61920	1940249	8448	32416	25440	1	101011	34992
85.82	23341ca4e4830bee	61920	1940448	8448	32416	25440	1	101011	35312
85.82	23341ca4e4830bee	61920	1940639	8448	32496	25456	1	101013	35312
85.82	23341ca4e4830bee	61920	1940830	8448	32496	25456	1	101013	35312
85.82	23341ca4e4830bee	61920	1941011	8448	32496	25456	1	101013	35312
85.82	23341ca4e4830bee	61920	1941202	8448	32432	25456	1	101007	35216
85.82	23341ca4e4830bee	61920	1941393	8448	32432	25440	1	101009	35216
85.82	23341ca4e4830bee	61920	1941584	8448	32432	25440	0	101015	35216
85.82	23341ca4e4830bee	61920	1941776	8448	32432	25440	1	101009	35216
85.82	23341ca4e4830bee	61920	1941967	8448	32432	25472	1	101015	35008
85.82	23341ca4e4830bee	61920	1942158	8448	32432	25472	1	101013	35008
85.82	23341ca4e4830bee	61920	1942349	8448	32432	25472	1	101013	35008
85.82	23341ca4e4830bee	61920	1942540	8448	32432	25472	1	101021	35008
85.82	23341ca4e4830bee	61920	1942722	8576	32480	25456	1	101009	35072
85.82	23341ca4e4830bee	61920	1942954	8576	32480	25456	1	101015	35072
85.82	23341ca4e4830bee	61920	1943145	8576	32480	25456	1	101009	35072
85.82	23341ca4e4830bee	61920	1943336	8576	32480	25456	1	101019	35344
85.82	23341ca4e4830bee	61920	1943527	8576	32432	25424	0	101015	35344
85.82	23341ca4e4830bee	61920	1943718	8576	32432	25424	0	101005	35344
85.82	23341ca4e4830bee	61920	1943909	8576	32432	25424	0	100999	35344
85.82	23341ca4e4830bee	61920	1944100	8448	32432	25424	1	101011	35360
85.82	23341ca4e4830bee	61920	1944291	8448	32432	25424	1	101003	35360
85.82	23341ca4e4830bee	61920	1944482	8448	32432	25424	1	101021	35360
85.82	23341ca4e4830bee	61920	1944673	8448	32432	25424	1	101009	35360
85.82	23341ca4e4830bee	61920	1944865	8448	32416	25440	1	101003	35392
85.82	23341ca4e4830bee	61920	1945056	8448	32416	25440	1	101009	35392
85.82	23341ca4e4830bee	61920	1945247	8448	32416	25440	1	101009	35392
85.82	23341ca4e4830bee	61920	1945438	8448	32416	25440	1	101005	35392
85.82	23341ca4e4830bee	61920	1945629	8576	32464	25424	1	101015	35072
85.82	23341ca4e4830bee	61920	1945821	8576	32464	25424	0	101009	35072
85.82	23341ca4e4830bee	61920	1946002	8576	32464	25424	0	101019	35072
85.82	23341ca4e4830bee	61920	1946193	8448	32464	25424	1	101003	35072
85.82	23341ca4e4830bee	61920	1946384	8448	32448	25424	1	101005	34992
85.82	23341ca4e4830bee	61920	1946575	8448	32448	25424	1	101015	34992
85.82	23341ca4e4830bee	61920	1946817	8448	32448	25424	1	101011	34992
85.82	23341ca4e4830bee	61904	1947009	8448	32432	25408	1	101003	35120
85.82	23341ca4e4830bee	61904	1947200	8448	32432	25408	1	101015	35120
85.82	23341ca4e4830bee	61904	1947391	8448	32432	25408	0	101015	35120
85.82	23341ca4e4830bee	61904	1947582	8448	32432	25408	0	101013	35120
85.82	23341ca4e4830bee	61904	1947773	8448	32448	25424	0	101015	35088
85.82	23341ca4e4830bee	61904	1947964	8448	32448	25424	0	101007	35088
85.82	23341ca4e4830bee	61904	1948155	8448	32448	25424	0	101013	35088
85.82	23341ca4e4830bee	61904	1948346	8448	32448	25424	0	101013	35088
85.82	23341ca4e4830bee	61904	1948537	8448	32448	25424	0	101015	35104
85.82	23341ca4e4830bee	61904	1948728	8448	32448	25424	0	101013	35104
85.82	23341ca4e4830bee	61904	1948919	8448	32448	25424	0	101013	35104
85.82	23341ca4e4830bee	61904	1949111	8448	32448	25424	0	101009	35104
85.82	23341ca4e4830bee	61904	1949302	8448	32416	25440	0	101007	35184
85.82	23341ca4e4830bee	61904	1949493	8448	32416	25440	0	101009	35184
85.82	23341ca4e4830bee	61904	1949684	8448	32416	25440	0	101011	35184
85.82	23341ca4e4830bee	61904	1949876	8448	32432	25440	0	101009	35024
85.82	23341ca4e4830bee	61904	1950067	8448	32432	25424	0	101007	35024
85.82	23341ca4e4830bee	61904	1950258	8448	32432	25424	0	101011	35024
85.82	23341ca4e4830bee	61904	1950449	8448	32432	25424	0	101019	35024
85.82	23341ca4e4830bee	61904	1950678	8448	32432	25456	0	101013	35104
85.82	23341ca4e4830bee	61904	1950870	8448	32432	25456	0	101013	35104
85.82	23341ca4e4830bee	61904	1951061	8448	32432	25456	0	101003	35104
85.82	23341ca4e4830bee	61904	1951252	8448	32432	25456	0	101003	35104
85.82	23341ca4e4830bee	61904	1951433	8448	32432	25440	0	101005	35104
85.82	23341ca4e4830bee	61904	1951624	8448	32432	25440	0	101015	35104
85.82	23341ca4e4830bee	61904	1951815	8448	32432	25440	0	101009	35104
85.82	23341ca4e4830bee	61904	1952006	8576	32432	25440	0	101015	35232
85.82	23341ca4e4830bee	61920	1952197	8576	32448	25440	0	101015	35232
85.82	23341ca4e4830bee	61920	1952388	8576	32448	25440	0	101009	35232
85.82	23341ca4e4830bee	61920	1952580	8576	32448	25440	0	101011	35232
85.82	23341ca4e4830bee	61904	1952771	8448	32464	25440	0	101013	35088
85.82	23341ca4e4830bee	61904	1952962	8448	32464	25440	0	101013	35088
85.82	23341ca4e4830bee	61904	1953143	8448	32464	25440	0	101007	35088
85.82	23341ca4e4830bee	61904	1953345	8448	32464	25440	0	101011	35088
85.82	23341ca4e4830bee	61904	1953536	8576	32448	25440	0	101011	35344
85.82	23341ca4e4830bee	61904	1953727	8576	32448	25440	0	101011	35344
85.82	23341ca4e4830bee	61904	1953918	8576	32448	25440	0	101011	35344
85.82	23341ca4e4830bee	61904	1954110	8576	32448	25440	0	101017	35344
85.82	23341ca4e4830bee	61920	1954301	8576	32416	25440	0	101021	35104
85.82	23341ca4e4830bee	61920	1954536	8576	32416	25440	0	101007	35104
85.82	23341ca4e4830bee	61920	1954727	8576	32416	25440	0	101017	35104
85.82	23341ca4e4830bee	61920	1954918	8576	32416	25440	0	101005	34944
85.82	23341ca4e4830bee	61920	1955109	8576	32448	25456	0	101015	34944
85.82	23341ca4e4830bee	61920	1955300	8576	32448	25456	0	101011	34944
85.82	23341ca4e4830bee	61920	1955491	8576	32448	25456	0	101017	34944
85.82	23341ca4e4830bee	61904	1955682	8448	32448	25408	0	101013	35328
85.82	23341ca4e4830bee	61904	1955863	8448	32448	25408	0	101017	35328
85.82	23341ca4e4830bee	61904	1956054	8448	32448	25408	0	101011	35328
85.82	23341ca4e4830bee	61904	1956246	8448	32448	25408	0	101017	35328
85.82	23341ca4e4830bee	61904	1956437	8448	32464	25440	0	101017	35024
85.82	23341ca4e4830bee	61904	1956628	8448	32464	25440	0	101005	35024
85.82	23341ca4e4830bee	61904	1956819	8448	32464	25440	0	101009	35024
85.82	23341ca4e4830bee	61904	1957010	8448	32464	25440	0	101013	35024
85.82	23341ca4e4830bee	61920	1957202	8576	32416	25456	0	101019	35104
85.82	23341ca4e4830bee	61920	1957383	8576	32416	25456	0	101017	35104
85.82	23341ca4e4830bee	61920	1957575	8576	32416	25456	0	101015	35104
85.82	23341ca4e4830bee	61920	1957766	8448	32416	25456	0	101013	35104
85.82	23341ca4e4830bee	61904	1957957	8448	32432	25456	0	101019	35312
85.82	23341ca4e4830bee	61904	1958148	8448	32432	25456	0	101023	35312
85.82	23341ca4e4830bee	61904	1958396	8448	32432	25456	0	101017	35312
85.82	23341ca4e4830bee	61904	1958599	8448	32416	25456	0	101013	35008
85.82	23341ca4e4830bee	61904	1958790	8448	32416	25456	0	101011	35008
85.82	23341ca4e4830bee	61904	1958981	8448	32416	25456	0	101015	35008
85.82	23341ca4e4830bee	61904	1959172	8448	32416	25456	0	101011	35008
85.82	23341ca4e4830bee	61920	1959353	8576	32464	25440	0	101017	35232
85.82	23341ca4e4830bee	61920	1959544	8576	32464	25440	0	101011	35232
85.82	23341ca4e4830bee	61920	1959735	8576	32464	25440	0	101015	35232
85.82	23341ca4e4830bee	61920	1959927	8448	32464	25440	0	101009	35232
85.82	23341ca4e4830bee	61920	1960118	8448	32448	25488	0	101007	35024
85.82	23341ca4e4830bee	61920	1960309	8448	32448	25488	0	101017	35024
85.82	23341ca4e4830bee	61920	1960500	8448	32448	25488	0	101013	35024
85.82	23341ca4e4830bee	61920	1960691	8448	32448	25488	0	101023	35360
85.82	23341ca4e4830bee	61920	1960883	8448	32448	25424	0	101023	35360
85.82	23341ca4e4830bee	61920	1961064	8448	32448	25424	0	101007	35360
85.82	23341ca4e4830bee	61920	1961255	8448	32448	25424	0	101001	35360
85.82	23341ca4e4830bee	61904	1961446	8448	32448	25440	0	101011	35200
85.82	23341ca4e4830bee	61904	1961637	8448	32448	25440	0	101013	35200
85.82	23341ca4e4830bee	61904	1961829	8448	32448	25440	0	101011	35200
85.82	23341ca4e4830bee	61904	1962020	8448	32448	25440	0	101013	35200
85.82	23341ca4e4830bee	61904	1962241	8448	32432	25456	0	101015	35328
85.82	23341ca4e4830bee	61904	1962432	8448	32432	25456	0	101007	35328
85.82	23341ca4e4830bee	61904	1962623	8448	32432	25456	0	101019	35328
85.82	23341ca4e4830bee	61904	1962804	8576	32432	25456	0	101011	35328
85.82	23341ca4e4830bee	61904	1962995	8576	32448	25472	0	101013	35232
85.82	23341ca4e4830bee	61904	1963186	8576	32448	25472	0	101009	35232
85.82	23341ca4e4830bee	61904	1963378	8576	32448	25472	0	101011	35232
85.82	23341ca4e4830bee	61904	1963569	8448	32448	25472	0	101013	35296
85.82	23341ca4e4830bee	61920	1963760	8448	32448	25440	0	101013	35296
85.82	23341ca4e4830bee	61920	1963951	8448	32448	25440	0	101007	35296
85.82	23341ca4e4830bee	61920	1964142	8448	32448	25440	0	101019	35296
85.82	23341ca4e4830bee	62272	1964323	8576	32416	25440	0	101007	35184
85.82	23341ca4e4830bee	62272	1964515	8576	32416	25456	0	101007	35184
85.82	23341ca4e4830bee	62272	1964706	8576	32416	25456	1	101009	35184
85.82	23341ca4e4830bee	62272	1964897	8576	32416	25456	1	101019	35184
85.82	23341ca4e4830bee	63840	1965088	8576	32400	25456	1	101017	35344
85.82	23341ca4e4830bee	63840	1965279	8576	32400	25456	1	101001	35344
85.82	23341ca4e4830bee	63840	1965470	8576	32400	25456	1	101015	35344
85.82	23341ca4e4830bee	63840	1965662	8576	32400	25456	0	101011	35344
85.82	23341ca4e4830bee	63648	1965853	8448	32400	25392	1	101019	35168
85.82	23341ca4e4830bee	63648	1966084	8448	32400	25392	0	101011	35168
85.82	23341ca4e4830bee	63648	1966275	8448	32400	25392	1	101009	35168
85.82	23341ca4e4830bee	64384	1966466	8448	32400	25392	1	101017	35312
85.82	23341ca4e4830bee	64384	1966657	8448	31680	26304	1	101013	35312
85.82	23341ca4e4830bee	64384	1966848	8448	31680	26304	1	101009	35312
85.82	23341ca4e4830bee	64384	1967039	8448	31680	26304	1	101009	35312
85.82	23341ca4e4830bee	64224	1967230	8448	31264	25520	0	101009	35280
85.82	23341ca4e4830bee	64224	1967421	8448	31264	25520	0	101009	35280
85.82	23341ca4e4830bee	64224	1967613	8448	31264	25520	0	101013	35280
85.82	23341ca4e4830bee	64224	1967804	8448	31264	25520	0	101009	35280
85.82	23341ca4e4830bee	64624	1967995	8448	31152	25472	1	101013	34976
85.82	23341ca4e4830bee	64624	1968186	8448	31152	25472	0	101007	34976
85.82	23341ca4e4830bee	64624	1968378	8448	31152	25472	1	101009	34976
85.82	23341ca4e4830bee	64624	1968569	8448	31152	25472	0	101011	34976
85.82	23341ca4e4830bee	64336	1968760	8448	30976	25472	1	101017	35312
85.82	23341ca4e4830bee	64336	1968954	8448	30976	25472	1	101007	35312
85.82	23341ca4e4830bee	64336	1969135	8448	30976	25472	1	101001	35312
85.82	23341ca4e4830bee	64336	1969326	8448	30976	25472	1	101009	35312
85.82	23341ca4e4830bee	64272	1969518	8448	31232	25488	1	101017	35104
85.82	23341ca4e4830bee	64272	1969717	8448	31232	25488	1	101007	35104
85.82	23341ca4e4830bee	64272	1969953	8448	31232	25488	1	101013	35104
85.82	23341ca4e4830bee	64400	1970144	8448	31168	25504	1	101001	35088
85.82	23341ca4e4830bee	64400	1970335	8448	31168	25504	0	101013	35088
85.82	23341ca4e4830bee	64400	1970526	8448	31168	25504	0	101009	35088
85.82	23341ca4e4830bee	64400	1970717	8448	31168	25504	0	101011	35088
85.82	23341ca4e4830bee	64192	1970908	8448	31168	25504	0	101017	35280
85.82	23341ca4e4830bee	64192	1971100	8448	31168	25504	0	101013	35280
85.82	23341ca4e4830bee	64192	1971291	8448	31168	25504	0	101009	35280
85.82	23341ca4e4830bee	64192	1971482	8448	31168	25504	0	101017	35280
85.82	23341ca4e4830bee	64240	1971673	8448	31152	25488	0	101017	35264
85.82	23341ca4e4830bee	64240	1971864	8448	31152	25488	0	101013	35264
85.82	23341ca4e4830bee	64240	1972045	8448	31152	25488	0	101019	35264
85.82	23341ca4e4830bee	64240	1972236	8448	31152	25488	0	101017	35024
85.82	23341ca4e4830bee	64384	1972437	8448	31152	25520	0	101017	35024
85.82	23341ca4e4830bee	64384	1972629	8448	31152	25520	1	101011	35024
85.82	23341ca4e4830bee	64384	1972820	8448	31152	25520	0	101015	35024
85.82	23341ca4e4830bee	64384	1973022	8448	31088	25504	0	101007	35120
85.82	23341ca4e4830bee	64384	1973213	8448	31088	25504	0	101007	35120
85.82	23341ca4e4830bee	64384	1973437	8448	31088	25504	1	101007	35120
85.82	23341ca4e4830bee	64384	1973629	8448	31088	25504	1	101017	35120
85.82	23341ca4e4830bee	64368	1973879	8448	31040	25520	0	101011	34880
85.82	23341ca4e4830bee	64368	1974070	8448	31040	25520	1	101011	34880
85.82	23341ca4e4830bee	64368	1974261	8448	31040	25520	0	101011	34880
85.82	23341ca4e4830bee	64288	1974452	8448	31024	25504	1	101013	34976
85.82	23341ca4e4830bee	64288	1974643	8448	31024	25504	0	101011	34976
85.82	23341ca4e4830bee	64288	1974834	8448	31024	25504	1	101011	34976
85.82	23341ca4e4830bee	64288	1975025	8448	31024	25504	0	101019	34976
85.82	23341ca4e4830bee	64288	1975216	8576	31024	25520	1	101017	34944
85.82	23341ca4e4830bee	64288	1975407	8576	31024	25520	1	101019	34944
85.82	23341ca4e4830bee	64288	1975598	8576	31024	25520	0	101015	34944
85.82	23341ca4e4830bee	64288	1975789	8576	31024	25520	1	101015	34944
85.82	23341ca4e4830bee	64352	1975981	8576	31024	25520	0	101005	35152
85.82	23341ca4e4830bee	64352	1976172	8576	31024	25520	0	101011	35152
85.82	23341ca4e4830bee	64352	1976363	8576	31024	25520	1	101011	35152
85.82	23341ca4e4830bee	64352	1976554	8576	31024	25520	1	101011	35152
85.82	23341ca4e4830bee	64240	1976745	8576	31024	25520	0	101005	35040
85.82	23341ca4e4830bee	64240	1976936	8576	31024	25520	0	101009	35040
85.82	23341ca4e4830bee	64240	1977128	8576	31024	25520	0	101011	35040
85.82	23341ca4e4830bee	64288	1977319	8448	31024	25520	0	101013	35008
85.82	23341ca4e4830bee	64288	1977510	8448	31040	25504	0	101013	35008
85.82	23341ca4e4830bee	64288	1977752	8448	31040	25504	0	101015	35008
85.82	23341ca4e4830bee	64288	1977943	8448	31040	25504	0	101009	35008
85.82	23341ca4e4830bee	64320	1978135	8448	31040	25520	1	101001	34992
85.82	23341ca4e4830bee	64320	1978316	8448	31040	25520	0	101007	34992
85.82	23341ca4e4830bee	64320	1978507	8448	31040	25520	0	101013	34992
85.82	23341ca4e4830bee	64320	1978698	8448	31040	25520	0	101011	34992
85.82	23341ca4e4830bee	64352	1978889	8448	31056	25536	0	101011	35168
85.82	23341ca4e4830bee	64352	1979080	8448	31056	25536	0	101003	35168
85.82	23341ca4e4830bee	64352	1979271	8448	31056	25536	0	101019	35168
85.82	23341ca4e4830bee	64368	1979469	8576	31056	25536	0	101017	35024
85.82	23341ca4e4830bee	64368	1979660	8576	31008	25520	0	101013	35024
86.0	23341ca4e4830bee	64368	1979851	8576	31008	25520	0	101021	35024
85.82	23341ca4e4830bee	64368	1980043	8576	31008	25520	0	101011	35024
85.82	23341ca4e4830bee	64352	1980234	8448	30992	25536	0	101013	35168
85.82	23341ca4e4830bee	64352	1980425	8448	30992	25536	1	101011	35168
85.82	23341ca4e4830bee	64352	1980606	8448	30992	25536	0	101001	35168
85.82	23341ca4e4830bee	64352	1980797	8448	30992	25536	0	101007	35168
86.0	23341ca4e4830bee	64368	1980988	8448	31008	25520	0	101019	35120
86.0	23341ca4e4830bee	64368	1981180	8448	31008	25520	0	101011	35120
86.0	23341ca4e4830bee	64368	1981371	8448	31008	25520	0	101017	35120
86.0	23341ca4e4830bee	64368	1981610	8576	31008	25520	0	101017	35120
86.0	23341ca4e4830bee	64336	1981801	8576	31008	25520	0	101007	35232
85.82	23341ca4e4830bee	64336	1981992	8576	31008	25520	0	101007	35232
86.0	23341ca4e4830bee	64336	1982183	8576	31008	25520	0	101011	35232
86.0	23341ca4e4830bee	64336	1982374	8448	31008	25520	0	101011	35328
86.0	23341ca4e4830bee	64336	1982565	8448	31008	25552	1	101011	35328
86.0	23341ca4e4830bee	64336	1982747	8448	31008	25552	0	101015	35328
86.0	23341ca4e4830bee	64336	1982938	8448	31008	25552	0	101003	35328
86.0	23341ca4e4830bee	64352	1983129	8448	31024	25520	0	101015	35072
86.0	23341ca4e4830bee	64352	1983320	8448	31024	25520	0	101005	35072
86.0	23341ca4e4830bee	64352	1983511	8448	31024	25520	0	101009	35072
86.0	23341ca4e4830bee	64352	1983702	8448	31024	25520	0	101005	35072
86.0	23341ca4e4830bee	64352	1983893	8448	31008	25552	0	101013	35200
86.0	23341ca4e4830bee	64352	1984085	8448	31008	25552	0	101017	35200
86.0	23341ca4e4830bee	64352	1984276	8448	31008	25552	0	101015	35200
86.0	23341ca4e4830bee	64352	1984467	8448	31008	25552	0	101013	35200
86.0	23341ca4e4830bee	64352	1984658	8576	30992	25536	0	101009	35328
86.0	23341ca4e4830bee	64352	1984849	8576	30992	25536	0	101021	35328
86.0	23341ca4e4830bee	64352	1985041	8576	30992	25536	0	101019	35328
86.0	23341ca4e4830bee	64352	1985232	8576	30992	25536	0	101009	35328
86.0	23341ca4e4830bee	64368	1985477	8576	30992	25536	0	101011	34944
86.0	23341ca4e4830bee	64368	1985677	8576	30992	25536	0	101007	34944
86.0	23341ca4e4830bee	64368	1985868	8576	30992	25536	0	101007	34944
86.0	23341ca4e4830bee	64352	1986059	8448	30944	25536	0	101013	35312
86.0	23341ca4e4830bee	64352	1986250	8448	30944	25536	0	101013	35312
86.0	23341ca4e4830bee	64352	1986446	8448	30944	25536	0	101017	35312
86.0	23341ca4e4830bee	64352	1986638	8448	30944	25536	0	101013	35312
86.0	23341ca4e4830bee	64336	1986829	8448	30928	25584	0	101003	35008
86.0	23341ca4e4830bee	64336	1987020	8448	30928	25584	1	101019	35008
86.0	23341ca4e4830bee	64336	1987216	8448	30928	25584	1	101007	35008
86.0	23341ca4e4830bee	64336	1987397	8448	30928	25584	1	101011	35008
86.0	23341ca4e4830bee	64768	1987588	8448	30336	25648	1	101011	35168
86.0	23341ca4e4830bee	64768	1987779	8448	30336	25648	1	101007	35168
86.0	23341ca4e4830bee	64768	1987970	8448	30336	25648	1	101017	35168
86.0	23341ca4e4830bee	64368	1988161	8448	30336	25648	0	101007	35056
86.0	23341ca4e4830bee	64368	1988353	8448	32192	25328	1	101013	35056
85.82	23341ca4e4830bee	64368	1988544	8448	32192	25328	1	100997	35056
85.82	23341ca4e4830bee	64368	1988735	8448	32192	25328	1	101013	35056
85.82	23341ca4e4830bee	62896	1988926	8448	32208	25344	1	101013	34992
85.82	23341ca4e4830bee	62896	1989107	8448	32208	25344	1	101007	34992
85.82	23341ca4e4830bee	62896	1989353	8448	32208	25344	1	101015	34992
85.82	23341ca4e4830bee	62896	1989544	8448	32208	25344	0	101007	34992
85.82	23341ca4e4830bee	62816	1989735	8448	32224	25328	1	101015	35248
85.82	23341ca4e4830bee	62816	1989926	8448	32224	25328	1	101013	35248
85.82	23341ca4e4830bee	62816	1990107	8448	32224	25328	1	101013	35248
85.82	23341ca4e4830bee	62800	1990315	8448	32224	25328	1	101003	35296
85.82	23341ca4e4830bee	62800	1990506	8448	32256	25344	1	101007	35296
85.82	23341ca4e4830bee	62800	1990687	8448	32256	25344	1	101007	35296
85.82	23341ca4e4830bee	62800	1990879	8448	32256	25344	1	101007	35296
85.82	23341ca4e4830bee	62784	1991084	8448	32240	25328	0	101013	35216
85.82	23341ca4e4830bee	62784	1991282	8448	32240	25328	0	101009	35216
85.82	23341ca4e4830bee	62784	1991474	8448	32240	25328	0	101015	35216
85.82	23341ca4e4830bee	62784	1991665	8448	32240	25328	0	101019	35216
85.82	23341ca4e4830bee	62768	1991856	8448	32272	25328	0	101015	34912
85.82	23341ca4e4830bee	62768	1992060	8448	32272	25328	0	101011	34912
85.82	23341ca4e4830bee	62768	1992251	8448	32272	25328	0	101017	34912
85.82	23341ca4e4830bee	62768	1992442	8576	32272	25328	0	101013	34912
85.82	23341ca4e4830bee	62768	1992634	8576	32240	25328	0	101005	34992
85.82	23341ca4e4830bee	62768	1992832	8576	32240	25328	0	101007	34992
85.82	23341ca4e4830bee	62768	1993024	8576	32240	25328	0	101007	34992
85.82	23341ca4e4830bee	62768	1993255	8448	32256	25344	0	101009	35344
85.82	23341ca4e4830bee	62768	1993446	8448	32256	25344	0	101013	35344
85.82	23341ca4e4830bee	62768	1993637	8448	32256	25344	0	101013	35344
85.82	23341ca4e4830bee	62768	1993818	8448	32256	25344	0	101007	35344
85.82	23341ca4e4830bee	62768	1994009	8448	32256	25344	0	101011	35280
85.82	23341ca4e4830bee	62768	1994200	8448	32256	25344	0	101013	35280
85.82	23341ca4e4830bee	62768	1994392	8448	32256	25344	0	101011	35280
85.82	23341ca4e4830bee	62768	1994583	8448	32256	25344	0	101013	35280
85.82	23341ca4e4830bee	62768	1994774	8448	32272	25344	0	101009	35104
85.82	23341ca4e4830bee	62768	1994965	8448	32272	25344	0	101009	35104
85.82	23341ca4e4830bee	62768	1995156	8448	32272	25344	0	100999	35104
85.82	23341ca4e4830bee	62768	1995367	8576	32272	25344	0	101011	34960
85.82	23341ca4e4830bee	62768	1995558	8576	32304	25328	0	101009	34960
85.82	23341ca4e4830bee	62768	1995749	8576	32304	25328	0	101007	34960
85.82	23341ca4e4830bee	62768	1995940	8576	32304	25328	0	101011	34960
85.82	23341ca4e4830bee	62752	1996132	8448	32256	25360	0	101015	34992
85.82	23341ca4e4830bee	62752	1996323	8448	32256	25360	0	101005	34992
85.82	23341ca4e4830bee	62752	1996514	8448	32256	25360	0	101009	34992
85.82	23341ca4e4830bee	62752	1996705	8448	32256	25360	0	101017	34992
85.82	23341ca4e4830bee	62768	1996897	8448	32256	25344	0	101009	35376
85.82	23341ca4e4830bee	62768	1997128	8448	32256	25344	0	101005	35376
85.82	23341ca4e4830bee	62768	1997309	8448	32256	25344	0	101001	35376
85.82	23341ca4e4830bee	62768	1997500	8448	32256	25344	0	101013	35376
85.82	23341ca4e4830bee	62752	1997691	8448	32272	25312	0	101003	35280
85.82	23341ca4e4830bee	62752	1997883	8448	32272	25312	0	101009	35280
85.82	23341ca4e4830bee	62752	1998074	8448	32272	25312	0	101019	35280
85.82	23341ca4e4830bee	62752	1998265	8448	32272	25312	0	101009	34944
85.82	23341ca4e4830bee	62752	1998463	8448	32288	25344	0	101007	34944
85.82	23341ca4e4830bee	62752	1998654	8448	32288	25344	0	101015	34944
85.82	23341ca4e4830bee	62752	1998845	8448	32288	25344	0	101009	34944
85.82	23341ca4e4830bee	62752	1999037	8448	32288	25376	0	101009	35072
85.82	23341ca4e4830bee	62752	1999228	8448	32288	25376	0	101015	35072
85.82	23341ca4e4830bee	62752	1999409	8448	32288	25376	0	101015	35072
85.82	23341ca4e4830bee	62752	1999600	8448	32288	25376	0	101015	35072
85.82	23341ca4e4830bee	62752	1999791	8448	32272	25344	0	101003	35328
85.82	23341ca4e4830bee	62752	1999982	8448	32272	25344	0	101015	35328
85.82	23341ca4e4830bee	62752	2000174	8448	32272	25344	0	101011	35328
85.82	23341ca4e4830bee	62752	2000365	8448	32272	25344	0	101015	35328
85.82	23341ca4e4830bee	62768	2000556	8448	32288	25360	0	101011	35040
85.82	23341ca4e4830bee	62768	2000747	8448	32288	25360	0	101017	35040
85.82	23341ca4e4830bee	62768	2000977	8448	32288	25360	0	101009	35040
85.82	23341ca4e4830bee	62752	2001168	8448	32224	25360	0	101015	35248
85.82	23341ca4e4830bee	62752	2001349	8448	32224	25328	0	101007	35248
85.82	23341ca4e4830bee	62752	2001540	8448	32224	25328	0	101009	35248
85.82	23341ca4e4830bee	62752	2001731	8448	32224	25328	0	101015	35248
85.82	23341ca4e4830bee	62752	2001922	8448	32256	25328	0	101009	34992
85.82	23341ca4e4830bee	62752	2002114	8448	32256	25328	0	101009	34992
85.82	23341ca4e4830bee	62752	2002305	8448	32256	25328	0	101013	34992
85.82	23341ca4e4830bee	62752	2002496	8448	32256	25328	0	101009	34992
85.82	23341ca4e4830bee	62752	2002687	8448	32304	25344	0	101009	35312
85.82	23341ca4e4830bee	62752	2002878	8448	32304	25344	0	101013	35312
85.82	23341ca4e4830bee	62752	2003059	8448	32304	25344	0	101015	35312
85.82	23341ca4e4830bee	62752	2003250	8448	32304	25344	0	101015	35312
85.82	23341ca4e4830bee	62752	2003446	8448	32272	25360	0	101011	35376
85.82	23341ca4e4830bee	62752	2003638	8448	32272	25360	0	101009	35376
85.82	23341ca4e4830bee	62752	2003829	8448	32272	25360	0	101019	35376
85.82	23341ca4e4830bee	62752	2004020	8448	32272	25360	0	101013	35072
85.82	23341ca4e4830bee	62752	2004218	8448	32272	25344	0	101011	35072
85.82	23341ca4e4830bee	62752	2004409	8448	32272	25344	0	101019	35072
85.82	23341ca4e4830bee	62752	2004590	8448	32272	25344	0	101005	35072
85.82	23341ca4e4830bee	62752	2004824	8576	32304	25312	0	101015	34976
85.82	23341ca4e4830bee	62752	2005015	8576	32304	25312	0	101009	34976
85.82	23341ca4e4830bee	62752	2005206	8576	32304	25312	0	101015	34976
85.82	23341ca4e4830bee	62752	2005397	8576	32304	25312	0	101003	34976
85.82	23341ca4e4830bee	62752	2005588	8448	32272	25344	0	101015	35328
85.82	23341ca4e4830bee	62752	2005779	8448	32272	25344	0	101009	35328
85.82	23341ca4e4830bee	62752	2005970	8448	32272	25344	0	101009	35328
85.82	23341ca4e4830bee	62752	2006161	8576	32272	25344	0	101009	35328
85.82	23341ca4e4830bee	62752	2006352	8576	32304	25328	0	101017	35088
85.82	23341ca4e4830bee	62752	2006544	8576	32304	25328	0	101009	35088
85.82	23341ca4e4830bee	62752	2006735	8576	32304	25328	0	101015	35088
85.82	23341ca4e4830bee	62752	2006926	8448	32304	25328	0	101023	35088
85.82	23341ca4e4830bee	62752	2007117	8448	32272	25360	0	101011	35088
85.82	23341ca4e4830bee	62752	2007308	8448	32272	25360	0	101009	35088
85.82	23341ca4e4830bee	62752	2007499	8448	32272	25360	0	101015	35088
85.82	23341ca4e4830bee	62752	2007690	8448	32288	25376	0	101015	35296
85.82	23341ca4e4830bee	62752	2007882	8448	32288	25376	0	101013	35296
85.82	23341ca4e4830bee	62752	2008073	8448	32288	25376	0	101015	35296
85.82	23341ca4e4830bee	62752	2008264	8448	32288	25376	0	101005	35296
85.82	23341ca4e4830bee	62752	2008456	8448	32288	25344	0	101013	35072
85.82	23341ca4e4830bee	62752	2008687	8448	32288	25344	0	101003	35072
85.82	23341ca4e4830bee	62752	2008878	8448	32288	25344	0	101015	35072
85.82	23341ca4e4830bee	62752	2009069	8448	32288	25344	0	101009	35072
85.82	23341ca4e4830bee	62752	2009250	8448	32288	25312	0	101011	35136
85.82	23341ca4e4830bee	62752	2009441	8448	32288	25312	0	101011	35136
85.82	23341ca4e4830bee	62752	2009632	8448	32288	25312	0	101009	35136
85.82	23341ca4e4830bee	62752	2009823	8448	32288	25312	0	101009	35376
85.82	23341ca4e4830bee	62752	2010014	8448	32336	25328	0	101007	35376
85.82	23341ca4e4830bee	62752	2010206	8448	32336	25328	0	101009	35376
85.82	23341ca4e4830bee	62752	2010397	8448	32336	25328	0	101011	35376
85.82	23341ca4e4830bee	62752	2010588	8448	32304	25344	0	101005	35168
85.82	23341ca4e4830bee	62752	2010779	8448	32304	25344	0	101015	35168
85.82	23341ca4e4830bee	62752	2010960	8448	32304	25344	0	101019	35168
85.82	23341ca4e4830bee	62752	2011151	8448	32304	25344	0	101021	35168
85.82	23341ca4e4830bee	62752	2011342	8448	32304	25328	0	101011	35344
85.82	23341ca4e4830bee	62752	2011534	8448	32304	25328	0	101009	35344
85.82	23341ca4e4830bee	62752	2011725	8448	32304	25328	0	101015	35344
85.82	23341ca4e4830bee	62752	2011921	8448	32304	25328	0	101009	35344
85.82	23341ca4e4830bee	62752	2012112	8448	32320	25344	0	101005	35104
85.82	23341ca4e4830bee	62752	2012304	8448	32320	25344	0	101015	35104
85.82	23341ca4e4830bee	62752	2012537	8448	32320	25344	0	101009	35104
85.82	23341ca4e4830bee	62752	2012728	8448	32304	25344	0	101017	35072
85.82	23341ca4e4830bee	62752	2012919	8448	32304	25328	0	101011	35072
85.82	23341ca4e4830bee	62752	2013110	8448	32304	25328	0	100999	35072
85.82	23341ca4e4830bee	62752	2013301	8448	32304	25328	0	101021	35072
85.82	23341ca4e4830bee	62752	2013492	8448	32288	25376	0	101011	35136
85.82	23341ca4e4830bee	62752	2013683	8448	32288	25376	0	101011	35136
85.82	23341ca4e4830bee	62752	2013874	8448	32288	25376	0	101007	35136
85.82	23341ca4e4830bee	62752	2014066	8448	32288	25376	0	101009	35136
85.82	23341ca4e4830bee	62752	2014257	8448	32320	25344	0	101009	35296
85.82	23341ca4e4830bee	62752	2014448	8448	32320	25344	0	101011	35296
85.82	23341ca4e4830bee	62752	2014639	8448	32320	25344	0	101017	35296
85.82	23341ca4e4830bee	62752	2014820	8448	32320	25344	0	101011	35296
85.82	23341ca4e4830bee	62752	2015011	8576	32304	25392	0	101011	35184
85.82	23341ca4e4830bee	62752	2015203	8576	32304	25392	0	101015	35184
85.82	23341ca4e4830bee	62752	2015394	8576	32304	25392	0	101015	35184
85.82	23341ca4e4830bee	62752	2015585	8576	32304	25392	0	101015	35024
85.82	23341ca4e4830bee	62752	2015776	8576	32304	25328	0	101009	35024
85.82	23341ca4e4830bee	62752	2015967	8576	32304	25328	0	101011	35024
85.82	23341ca4e4830bee	62752	2016159	8576	32304	25328	0	101019	35024
85.82	23341ca4e4830bee	62752	2016394	8448	32288	25360	0	101005	34992
85.82	23341ca4e4830bee	62752	2016585	8448	32288	25360	0	101013	34992
85.82	23341ca4e4830bee	62752	2016776	8448	32288	25360	0	101019	34992
85.82	23341ca4e4830bee	62752	2016967	8448	32288	25360	0	101007	34992
85.82	23341ca4e4830bee	62752	2017158	8448	32288	25328	0	101009	35328
85.82	23341ca4e4830bee	62752	2017349	8448	32288	25328	0	101003	35328
85.82	23341ca4e4830bee	62752	2017540	8448	32288	25328	0	101005	35328
85.82	23341ca4e4830bee	62752	2017721	8448	32288	25328	0	101019	35328
85.82	23341ca4e4830bee	62752	2017912	8448	32272	25344	0	101007	35360
85.82	23341ca4e4830bee	62752	2018103	8448	32272	25344	0	101009	35360
85.82	23341ca4e4830bee	62752	2018294	8448	32272	25344	0	101011	35360
85.82	23341ca4e4830bee	62752	2018485	8448	32272	25344	0	101007	35200
85.82	23341ca4e4830bee	62752	2018677	8448	32288	25344	0	101011	35200
85.82	23341ca4e4830bee	62752	2018868	8448	32288	25344	0	101005	35200
85.82	23341ca4e4830bee	62752	2019059	8448	32288	25344	0	101009	35200
85.82	23341ca4e4830bee	62752	2019250	8448	32288	25344	0	101011	35008
85.82	23341ca4e4830bee	62752	2019441	8448	32288	25344	0	101011	35008
85.82	23341ca4e4830bee	62752	2019632	8448	32288	25344	0	101011	35008
85.82	23341ca4e4830bee	62752	2019823	8448	32288	25344	0	101003	35008
85.82	23341ca4e4830bee	62752	2020014	8448	32304	25328	0	101009	35232
85.82	23341ca4e4830bee	62752	2020255	8448	32304	25328	0	101011	35232
85.82	23341ca4e4830bee	62752	2020446	8448	32304	25328	0	101017	35232
85.82	23341ca4e4830bee	62752	2020637	8448	32304	25328	0	101009	35232
85.82	23341ca4e4830bee	62752	2020828	8448	32288	25360	0	101009	35216
85.82	23341ca4e4830bee	62752	2021020	8448	32288	25360	0	101007	35216
85.82	23341ca4e4830bee	62752	2021211	8448	32288	25360	0	101019	35216
85.82	23341ca4e4830bee	62752	2021392	8576	32288	25360	0	101011	35072
85.82	23341ca4e4830bee	62752	2021583	8576	32304	25328	0	101015	35072
85.82	23341ca4e4830bee	62752	2021775	8576	32304	25328	0	101009	35072
85.82	23341ca4e4830bee	62752	2021966	8576	32304	25328	0	100997	35072
85.82	23341ca4e4830bee	62752	2022157	8448	32304	25312	0	101013	35184
85.82	23341ca4e4830bee	62752	2022348	8448	32304	25312	0	101015	35184
85.82	23341ca4e4830bee	62752	2022539	8448	32304	25312	0	101015	35184
85.82	23341ca4e4830bee	62752	2022730	8448	32304	25312	0	101013	35184
85.82	23341ca4e4830bee	62752	2022911	8576	32288	25328	0	101009	34976
85.82	23341ca4e4830bee	62752	2023103	8576	32288	25328	0	101003	34976
85.82	23341ca4e4830bee	62752	2023294	8576	32288	25328	0	101003	34976
85.82	23341ca4e4830bee	62752	2023485	8576	32288	25328	0	101009	34976
85.82	23341ca4e4830bee	62752	2023676	8448	32304	25328	0	101009	35344
85.82	23341ca4e4830bee	62752	2023867	8448	32304	25328	0	101013	35344
85.82	23341ca4e4830bee	62752	2024109	8448	32304	25328	0	101019	35344
85.82	23341ca4e4830bee	62752	2024300	8448	32288	25344	0	101013	34960
85.82	23341ca4e4830bee	62752	2024491	8448	32288	25344	0	101013	34960
85.82	23341ca4e4830bee	62752	2024683	8448	32288	25344	0	101019	34960
85.82	23341ca4e4830bee	62752	2024874	8448	32288	25344	0	101009	34960
85.82	23341ca4e4830bee	62752	2025065	8448	32320	25328	0	101013	34992
85.82	23341ca4e4830bee	62752	2025256	8448	32320	25328	0	101005	34992
85.82	23341ca4e4830bee	62752	2025447	8448	32320	25328	0	100991	34992
85.82	23341ca4e4830bee	62752	2025638	8448	32320	25328	0	101007	34992
85.82	23341ca4e4830bee	62752	2025829	8576	32288	25360	0	101009	35024
85.82	23341ca4e4830bee	62752	2026020	8576	32288	25360	0	101011	35024
85.82	23341ca4e4830bee	62752	2026202	8576	32288	25360	0	101005	35024
85.82	23341ca4e4830bee	62752	2026393	8448	32288	25360	0	101009	35024
85.82	23341ca4e4830bee	62752	2026584	8448	32304	25328	0	101005	35056
85.82	23341ca4e4830bee	62752	2026776	8448	32304	25328	0	101011	35056
85.82	23341ca4e4830bee	62752	2026967	8448	32304	25328	0	101017	35056
85.82	23341ca4e4830bee	62752	2027158	8448	32304	25328	0	101019	35184
85.82	23341ca4e4830bee	62752	2027349	8448	32304	25376	0	101011	35184
85.82	23341ca4e4830bee	62752	2027540	8448	32304	25376	0	101005	35184
85.82	23341ca4e4830bee	62752	2027722	8448	32304	25376	0	101011	35184
85.82	23341ca4e4830bee	62752	2027967	8448	32304	25344	0	101011	35328
85.82	23341ca4e4830bee	62752	2028158	8448	32304	25344	0	101017	35328
85.82	23341ca4e4830bee	62752	2028349	8448	32304	25344	0	101017	35328
85.82	23341ca4e4830bee	62752	2028540	8448	32304	25344	0	101001	35328
85.82	23341ca4e4830bee	62752	2028732	8576	32272	25344	0	101005	35024
85.82	23341ca4e4830bee	62752	2028913	8576	32272	25344	0	101007	35024
85.82	23341ca4e4830bee	62752	2029104	8576	32272	25344	0	101007	35024
85.82	23341ca4e4830bee	62752	2029295	8576	32272	25344	0	101011	35024
85.82	23341ca4e4830bee	62752	2029493	8576	32304	25344	0	101009	35232
85.82	23341ca4e4830bee	62752	2029684	8576	32304	25344	0	101007	35232
85.82	23341ca4e4830bee	62752	2029875	8576	32304	25344	0	101005	35232
85.82	23341ca4e4830bee	62752	2030067	8448	32304	25344	0	101011	34992
85.82	23341ca4e4830bee	62752	2030258	8448	32256	25360	0	101007	34992
85.82	23341ca4e4830bee	62752	2030449	8448	32256	25360	0	101011	34992
85.82	23341ca4e4830bee	62752	2030640	8448	32256	25360	0	101011	34992
85.82	23341ca4e4830bee	62752	2030832	8576	32320	25328	0	101017	34992
85.82	23341ca4e4830bee	62752	2031013	8576	32320	25328	0	101013	34992
85.82	23341ca4e4830bee	62752	2031204	8576	32320	25328	0	101011	34992
85.82	23341ca4e4830bee	62752	2031395	8576	32320	25328	0	101011	34992
85.82	23341ca4e4830bee	62752	2031586	8448	32288	25312	0	101009	34976
85.82	23341ca4e4830bee	62752	2031827	8448	32288	25312	0	101015	34976
85.82	23341ca4e4830bee	62752	2032018	8448	32288	25312	0	101019	34976
85.82	23341ca4e4830bee	62752	2032209	8448	32288	25312	0	101009	35280
85.82	23341ca4e4830bee	62752	2032400	8448	32304	25344	0	101005	35280
85.82	23341ca4e4830bee	62752	2032591	8448	32304	25344	0	101011	35280
85.82	23341ca4e4830bee	62752	2032782	8448	32304	25344	0	101011	35280
85.82	23341ca4e4830bee	62752	2032973	8576	32288	25344	0	101011	35008
85.82	23341ca4e4830bee	62752	2033164	8576	32288	25344	0	101003	35008
85.82	23341ca4e4830bee	62752	2033356	8576	32288	25344	0	101011	35008
85.82	23341ca4e4830bee	62752	2033547	8576	32288	25344	0	101009	35008
85.82	23341ca4e4830bee	62752	2033738	8576	32288	25312	0	101011	34976
85.82	23341ca4e4830bee	62752	2033929	8576	32288	25312	0	101015	34976
85.82	23341ca4e4830bee	62752	2034120	8576	32288	25312	0	101013	34976
85.82	23341ca4e4830bee	62752	2034311	8576	32288	25312	0	101015	34976
85.82	23341ca4e4830bee	62752	2034502	8448	32272	25344	0	101009	35120
85.82	23341ca4e4830bee	62752	2034693	8448	32272	25344	0	101013	35120
85.82	23341ca4e4830bee	62752	2034885	8448	32272	25344	0	101013	35120
85.82	23341ca4e4830bee	62752	2035076	8576	32272	25344	0	101011	35120
85.82	23341ca4e4830bee	62752	2035268	8576	32288	25328	0	101015	35280
85.82	23341ca4e4830bee	62752	2035459	8576	32288	25328	0	101015	35280
85.82	23341ca4e4830bee	62752	2035693	8576	32288	25328	0	101019	35280
85.82	23341ca4e4830bee	62752	2035884	8576	32304	25328	0	101001	35296
85.82	23341ca4e4830bee	62752	2036081	8576	32304	25328	0	101009	35296
85.82	23341ca4e4830bee	62752	2036272	8576	32304	25328	0	100999	35296
85.82	23341ca4e4830bee	62752	2036453	8576	32304	25328	0	101009	35296
85.82	23341ca4e4830bee	62752	2036645	8448	32288	25344	0	101013	35296
85.82	23341ca4e4830bee	62752	2036848	8448	32288	25344	0	101013	35296
85.82	23341ca4e4830bee	62752	2037039	8448	32288	25344	0	101015	35296
85.82	23341ca4e4830bee	62752	2037230	8448	32288	25344	0	101005	35296
85.82	23341ca4e4830bee	62752	2037421	8448	32288	25360	0	101009	35056
85.82	23341ca4e4830bee	62752	2037612	8448	32288	25360	0	101013	35056
85.82	23341ca4e4830bee	62752	2037794	8448	32288	25360	0	101011	35056
85.82	23341ca4e4830bee	62752	2037985	8576	32288	25360	0	101015	35024
85.82	23341ca4e4830bee	62752	2038176	8576	32288	25344	0	101007	35024
85.82	23341ca4e4830bee	62752	2038367	8576	32288	25344	0	101015	35024
85.82	23341ca4e4830bee	62752	2038558	8576	32288	25344	0	101011	35024
85.82	23341ca4e4830bee	62752	2038749	8576	32272	25344	0	101009	35344
85.82	23341ca4e4830bee	62752	2038941	8576	32272	25328	0	101011	35344
85.82	23341ca4e4830bee	62752	2039132	8576	32272	25328	0	101007	35344
85.82	23341ca4e4830bee	62752	2039313	8576	32272	25328	0	101011	35344