Digit_temp	id	light	timestamp	acc_z	acc_y	acc_x	motion	pressure	humid
86.36	23341ca4e4830bee	63472	1079052	8576	30192	30112	0	101023	35232
86.36	23341ca4e4830bee	63472	1079256	8576	30192	30112	0	101015	35232
86.36	23341ca4e4830bee	63472	1079447	8576	30192	30112	0	101023	35232
86.36	23341ca4e4830bee	63472	1079638	8576	30192	30112	0	101017	35232
86.36	23341ca4e4830bee	63472	1079829	8576	30208	30144	0	101021	35216
86.36	23341ca4e4830bee	63472	1080020	8576	30208	30144	0	101023	35216
86.36	23341ca4e4830bee	63472	1080211	8576	30208	30144	0	101017	35216
86.36	23341ca4e4830bee	63472	1080402	8576	30208	30144	0	101027	35216
86.36	23341ca4e4830bee	63472	1080593	8576	30192	30128	0	101023	35248
86.36	23341ca4e4830bee	63472	1080784	8576	30192	30128	0	101017	35248
86.36	23341ca4e4830bee	63472	1080976	8576	30192	30128	0	101015	35248
86.36	23341ca4e4830bee	63472	1081166	8576	30192	30128	0	101017	35280
86.36	23341ca4e4830bee	63472	1081358	8576	30192	30128	0	101017	35280
86.36	23341ca4e4830bee	63472	1081549	8576	30192	30128	0	101011	35280
86.36	23341ca4e4830bee	63472	1081740	8576	30192	30128	0	101021	35280
86.36	23341ca4e4830bee	63472	1081931	8576	30192	30144	0	101029	34976
86.36	23341ca4e4830bee	63472	1082112	8576	30192	30144	0	101017	34976
86.36	23341ca4e4830bee	63472	1082303	8576	30192	30144	0	101011	34976
86.36	23341ca4e4830bee	63472	1082494	8576	30192	30144	0	101023	34976
86.36	23341ca4e4830bee	63472	1082685	8576	30240	30112	0	101023	35280
86.36	23341ca4e4830bee	63472	1082921	8576	30240	30112	0	101023	35280
86.36	23341ca4e4830bee	63472	1083102	8576	30240	30112	0	101023	35280
86.36	23341ca4e4830bee	63472	1083293	8576	30240	30112	0	101027	35280
86.36	23341ca4e4830bee	63472	1083484	8576	30224	30080	0	101023	35296
86.36	23341ca4e4830bee	63472	1083675	8576	30224	30080	0	101017	35296
86.36	23341ca4e4830bee	63472	1083867	8576	30224	30080	0	101027	35296
86.36	23341ca4e4830bee	63472	1084058	8576	30192	30080	0	101023	35136
86.36	23341ca4e4830bee	63472	1084249	8576	30192	30128	0	101021	35136
86.36	23341ca4e4830bee	63472	1084440	8576	30192	30128	0	101023	35136
86.36	23341ca4e4830bee	63472	1084631	8576	30192	30128	0	101021	35136
86.36	23341ca4e4830bee	63472	1084812	8576	30208	30080	0	101023	35072
86.36	23341ca4e4830bee	63472	1085003	8576	30208	30080	0	101021	35072
86.36	23341ca4e4830bee	63472	1085194	8576	30208	30080	0	101023	35072
86.36	23341ca4e4830bee	63472	1085385	8576	30208	30080	0	101029	35072
86.36	23341ca4e4830bee	63472	1085577	8576	30240	30128	0	101023	35184
86.36	23341ca4e4830bee	63472	1085768	8576	30240	30128	0	101017	35184
86.36	23341ca4e4830bee	63472	1085959	8576	30240	30128	0	101033	35184
86.36	23341ca4e4830bee	63472	1086150	8576	30240	30128	0	101017	35184
86.36	23341ca4e4830bee	63472	1086341	8576	30240	30112	0	101021	35200
86.36	23341ca4e4830bee	63472	1086533	8576	30240	30112	0	101023	35200
86.36	23341ca4e4830bee	63472	1086780	8576	30240	30112	0	101017	35200
86.36	23341ca4e4830bee	63472	1086972	8576	30208	30112	0	101013	35248
86.36	23341ca4e4830bee	63472	1087153	8576	30208	30112	0	101023	35248
86.36	23341ca4e4830bee	63472	1087344	8576	30208	30112	0	101025	35248
86.36	23341ca4e4830bee	63472	1087535	8576	30208	30112	0	101027	35248
86.36	23341ca4e4830bee	63472	1087726	8576	30208	30096	0	101017	35312
86.36	23341ca4e4830bee	63472	1087917	8576	30208	30096	0	101017	35312
86.36	23341ca4e4830bee	63472	1088108	8576	30208	30096	0	101019	35312
86.36	23341ca4e4830bee	63472	1088299	8576	30208	30096	0	101023	35312
86.36	23341ca4e4830bee	63472	1088490	8576	30192	30096	0	101023	35344
86.36	23341ca4e4830bee	63472	1088682	8576	30192	30096	0	101029	35344
86.36	23341ca4e4830bee	63472	1088863	8576	30192	30096	0	101021	35344
86.36	23341ca4e4830bee	63472	1089054	8576	30192	30096	0	101027	35344
86.36	23341ca4e4830bee	63472	1089255	8576	30208	30128	0	101023	35008
86.36	23341ca4e4830bee	63472	1089446	8576	30208	30128	0	101029	35008
86.36	23341ca4e4830bee	63472	1089640	8576	30208	30128	0	101017	35008
86.36	23341ca4e4830bee	63472	1089832	8576	30208	30128	0	101017	35200
86.36	23341ca4e4830bee	63472	1090013	8576	30240	30096	0	101019	35200
86.36	23341ca4e4830bee	63472	1090204	8576	30240	30096	0	101017	35200
86.36	23341ca4e4830bee	63472	1090395	8576	30240	30096	0	101015	35200
86.36	23341ca4e4830bee	63472	1090641	8576	30208	30144	0	101027	35136
86.36	23341ca4e4830bee	63472	1090832	8576	30208	30144	0	101025	35136
86.36	23341ca4e4830bee	63472	1091013	8576	30208	30144	0	101017	35136
86.36	23341ca4e4830bee	63472	1091204	8576	30208	30144	0	101019	35136
86.36	23341ca4e4830bee	63472	1091395	8576	30224	30096	0	101021	35136
86.36	23341ca4e4830bee	63472	1091586	8576	30224	30096	0	101021	35136
86.36	23341ca4e4830bee	63472	1091777	8576	30224	30096	0	101017	35136
86.36	23341ca4e4830bee	63472	1091968	8576	30224	30096	0	101019	35280
86.36	23341ca4e4830bee	63488	1092159	8576	30224	30144	0	101025	35280
86.36	23341ca4e4830bee	63488	1092350	8576	30224	30144	0	101019	35280
86.36	23341ca4e4830bee	63488	1092542	8576	30224	30144	0	101023	35280
86.36	23341ca4e4830bee	63472	1092723	8576	30224	30144	0	101025	35168
86.36	23341ca4e4830bee	63472	1092914	8576	30240	30112	0	101013	35168
86.36	23341ca4e4830bee	63472	1093105	8576	30240	30112	0	101021	35168
86.36	23341ca4e4830bee	63472	1093296	8576	30240	30112	0	101019	35168
86.36	23341ca4e4830bee	63472	1093487	8576	30192	30112	0	101029	35408
86.36	23341ca4e4830bee	63472	1093679	8576	30192	30112	0	101015	35408
86.36	23341ca4e4830bee	63472	1093870	8576	30192	30112	0	101029	35408
86.36	23341ca4e4830bee	63472	1094061	8576	30192	30112	0	101017	35408
86.36	23341ca4e4830bee	63472	1094252	8576	30240	30128	0	101023	35328
86.36	23341ca4e4830bee	63472	1094491	8576	30240	30128	0	101029	35328
86.36	23341ca4e4830bee	63472	1094682	8576	30240	30128	0	101013	35328
86.36	23341ca4e4830bee	63472	1094864	8576	30240	30128	0	101029	35312
86.36	23341ca4e4830bee	63472	1095055	8576	30192	30112	0	101013	35312
86.36	23341ca4e4830bee	63472	1095266	8576	30192	30112	0	101023	35312
86.36	23341ca4e4830bee	63472	1095457	8576	30192	30112	0	101007	35312
86.36	23341ca4e4830bee	63472	1095648	8576	30224	30176	0	101017	34992
86.36	23341ca4e4830bee	63472	1095839	8576	30224	30176	0	101017	34992
86.36	23341ca4e4830bee	63472	1096030	8576	30224	30176	0	101017	34992
86.36	23341ca4e4830bee	63472	1096221	8576	30224	30176	0	101019	34992
86.36	23341ca4e4830bee	63472	1096412	8576	30208	30160	0	101023	35120
86.36	23341ca4e4830bee	63472	1096603	8576	30208	30160	0	101013	35120
86.36	23341ca4e4830bee	63472	1096794	8576	30208	30160	0	101019	35120
86.36	23341ca4e4830bee	63472	1096985	8576	30208	30160	0	101021	35120
86.36	23341ca4e4830bee	63472	1097177	8576	30240	30096	0	101013	35216
86.36	23341ca4e4830bee	63472	1097368	8576	30240	30096	0	101011	35216
86.36	23341ca4e4830bee	63472	1097559	8576	30240	30096	0	101021	35216
86.36	23341ca4e4830bee	63472	1097750	8576	30240	30096	0	101027	35280
86.36	23341ca4e4830bee	63472	1097941	8576	30192	30128	0	101017	35280
86.36	23341ca4e4830bee	63472	1098133	8576	30192	30128	0	101023	35280
86.36	23341ca4e4830bee	63472	1098364	8576	30192	30128	0	101021	35280
86.36	23341ca4e4830bee	63472	1098555	8576	30208	30112	0	101021	35008
86.36	23341ca4e4830bee	63472	1098746	8576	30208	30112	0	101023	35008
86.36	23341ca4e4830bee	63472	1098937	8576	30208	30112	0	101027	35008
86.36	23341ca4e4830bee	63472	1099128	8576	30208	30112	0	101015	35008
86.36	23341ca4e4830bee	63472	1099319	8576	30176	30112	0	101033	35344
86.36	23341ca4e4830bee	63472	1099511	8576	30176	30112	0	101027	35344
86.36	23341ca4e4830bee	63472	1099702	8576	30176	30112	0	101027	35344
86.36	23341ca4e4830bee	63472	1099893	8576	30176	30112	0	101017	35344
86.36	23341ca4e4830bee	63472	1100074	8576	30224	30144	0	101023	35088
86.36	23341ca4e4830bee	63472	1100265	8576	30224	30144	0	101021	35088
86.36	23341ca4e4830bee	63472	1100456	8576	30224	30144	0	101023	35088
86.36	23341ca4e4830bee	63472	1100647	8576	30224	30144	0	101015	34976
86.36	23341ca4e4830bee	63472	1100838	8576	30240	30096	0	101021	34976
86.36	23341ca4e4830bee	63472	1101029	8576	30240	30096	0	101027	34976
86.36	23341ca4e4830bee	63472	1101221	8576	30240	30096	0	101021	34976
86.36	23341ca4e4830bee	63472	1101412	8576	30208	30128	0	101021	35056
86.36	23341ca4e4830bee	63472	1101603	8576	30208	30128	0	101023	35056
86.36	23341ca4e4830bee	63472	1101784	8576	30208	30128	0	101021	35056
86.36	23341ca4e4830bee	63472	1101976	8576	30208	30128	0	101019	35056
86.36	23341ca4e4830bee	63472	1102223	8576	30208	30096	0	101027	35168
86.36	23341ca4e4830bee	63472	1102404	8576	30208	30096	0	101021	35168
86.36	23341ca4e4830bee	63472	1102596	8576	30208	30096	0	101023	35168
86.36	23341ca4e4830bee	63472	1102787	8576	30208	30096	0	101021	35168
86.36	23341ca4e4830bee	63472	1102978	8576	30240	30144	0	101021	35280
86.36	23341ca4e4830bee	63472	1103169	8576	30240	30144	0	101019	35280
86.36	23341ca4e4830bee	63472	1103360	8576	30240	30144	0	101021	35280
86.36	23341ca4e4830bee	63472	1103551	8576	30240	30144	0	101023	35328
86.36	23341ca4e4830bee	63472	1103742	8576	30192	30128	0	101021	35328
86.36	23341ca4e4830bee	63472	1103934	8576	30192	30128	0	101011	35328
86.36	23341ca4e4830bee	63472	1104115	8576	30192	30128	0	101011	35328
86.36	23341ca4e4830bee	63472	1104306	8576	30224	30096	0	101015	34992
86.36	23341ca4e4830bee	63472	1104497	8576	30224	30096	0	101021	34992
86.36	23341ca4e4830bee	63472	1104688	8576	30224	30096	0	101021	34992
86.36	23341ca4e4830bee	63472	1104879	8576	30224	30096	0	101021	34992
86.36	23341ca4e4830bee	63472	1105070	8576	30224	30128	0	101023	35280
86.36	23341ca4e4830bee	63472	1105262	8576	30224	30128	0	101011	35280
86.36	23341ca4e4830bee	63472	1105453	8576	30224	30128	0	101015	35280
86.36	23341ca4e4830bee	63472	1105644	8576	30224	30128	0	101013	35280
86.36	23341ca4e4830bee	63472	1105835	8576	30192	30096	0	101023	35072
86.36	23341ca4e4830bee	63472	1106084	8576	30192	30096	0	101021	35072
86.36	23341ca4e4830bee	63472	1106265	8576	30192	30096	0	101021	35072
86.36	23341ca4e4830bee	63472	1106456	8576	30176	30096	0	101021	35312
86.36	23341ca4e4830bee	63472	1106647	8576	30176	30112	0	101027	35312
86.36	23341ca4e4830bee	63472	1106838	8576	30176	30112	0	101021	35312
86.36	23341ca4e4830bee	63472	1107029	8576	30176	30112	0	101019	35312
86.36	23341ca4e4830bee	63472	1107220	8576	30224	30096	0	101015	35232
86.36	23341ca4e4830bee	63472	1107411	8576	30224	30096	0	101023	35232
86.36	23341ca4e4830bee	63472	1107602	8576	30224	30096	0	101027	35232
86.36	23341ca4e4830bee	63472	1107794	8576	30224	30096	0	101017	35232
86.36	23341ca4e4830bee	63472	1107975	8576	30240	30128	0	101027	35280
86.36	23341ca4e4830bee	63472	1108166	8576	30240	30128	0	101019	35280
86.36	23341ca4e4830bee	63472	1108357	8576	30240	30128	0	101023	35280
86.36	23341ca4e4830bee	63472	1108548	8576	30240	30128	0	101021	35280
86.36	23341ca4e4830bee	63472	1108739	8576	30144	30128	0	101021	34976
86.36	23341ca4e4830bee	63472	1108931	8576	30144	30128	0	101013	34976
86.36	23341ca4e4830bee	63472	1109122	8576	30144	30128	0	101019	34976
86.36	23341ca4e4830bee	63472	1109313	8576	30144	30128	0	101019	34960
86.36	23341ca4e4830bee	63472	1109504	8576	30192	30128	0	101023	34960
86.36	23341ca4e4830bee	63472	1109685	8576	30192	30128	0	101019	34960
86.36	23341ca4e4830bee	63472	1109929	8576	30192	30128	0	101019	34960
86.36	23341ca4e4830bee	63472	1110120	8576	30192	30144	0	101019	35056
86.36	23341ca4e4830bee	63472	1110311	8576	30192	30144	0	101027	35056
86.36	23341ca4e4830bee	63472	1110502	8576	30192	30144	0	101015	35056
86.36	23341ca4e4830bee	63472	1110718	8576	30192	30144	0	101023	35056
86.36	23341ca4e4830bee	63472	1110909	8576	30240	30128	0	101019	35328
86.36	23341ca4e4830bee	63472	1111100	8576	30240	30128	0	101021	35328
86.36	23341ca4e4830bee	63472	1111291	8576	30240	30128	0	101019	35328
86.36	23341ca4e4830bee	63472	1111483	8576	30240	30128	0	101015	35120
86.36	23341ca4e4830bee	63472	1111686	8576	30224	30112	0	101023	35120
86.36	23341ca4e4830bee	63472	1111877	8576	30224	30112	0	101017	35120
86.36	23341ca4e4830bee	63472	1112068	8576	30224	30112	0	101023	35120
86.36	23341ca4e4830bee	63472	1112259	8576	30224	30128	0	101025	35040
86.36	23341ca4e4830bee	63472	1112450	8576	30224	30128	0	101023	35040
86.36	23341ca4e4830bee	63472	1112641	8576	30224	30128	0	101023	35040
86.36	23341ca4e4830bee	63472	1112832	8576	30224	30128	0	101019	35040
86.36	23341ca4e4830bee	63472	1113024	8576	30192	30112	0	101019	35088
86.36	23341ca4e4830bee	63472	1113215	8576	30192	30112	0	101019	35088
86.36	23341ca4e4830bee	63472	1113406	8576	30192	30112	0	101019	35088
86.36	23341ca4e4830bee	63472	1113597	8576	30192	30112	0	101019	35088
86.36	23341ca4e4830bee	63472	1113840	8576	30208	30112	0	101023	35344
86.36	23341ca4e4830bee	63472	1114031	8576	30208	30112	0	101021	35344
86.36	23341ca4e4830bee	63472	1114222	8576	30208	30112	0	101019	35344
86.36	23341ca4e4830bee	63472	1114413	8576	30208	30096	0	101019	35248
86.36	23341ca4e4830bee	63472	1114604	8576	30208	30096	0	101019	35248
86.36	23341ca4e4830bee	63472	1114796	8576	30208	30096	0	101013	35248
86.36	23341ca4e4830bee	63472	1114987	8576	30208	30096	0	101027	35248
86.36	23341ca4e4830bee	63472	1115178	8576	30192	30144	0	101025	35120
86.36	23341ca4e4830bee	63472	1115369	8576	30192	30144	0	101021	35120
86.36	23341ca4e4830bee	63472	1115560	8576	30192	30144	0	101025	35120
86.36	23341ca4e4830bee	63472	1115751	8576	30192	30144	0	101019	35120
86.36	23341ca4e4830bee	63472	1115942	8576	30240	30112	0	101019	34992
86.36	23341ca4e4830bee	63472	1116133	8576	30240	30112	0	101021	34992
86.36	23341ca4e4830bee	63472	1116324	8576	30240	30112	0	101019	34992
86.36	23341ca4e4830bee	63472	1116506	8576	30240	30112	0	101021	34992
86.54	23341ca4e4830bee	63472	1116697	8576	30176	30128	0	101027	35024
86.54	23341ca4e4830bee	63472	1116888	8576	30176	30128	0	101021	35024
86.36	23341ca4e4830bee	63472	1117079	8576	30176	30128	0	101021	35024
86.36	23341ca4e4830bee	63472	1117270	8576	30176	30128	0	101015	34992
86.36	23341ca4e4830bee	63472	1117462	8576	30224	30112	0	101019	34992
86.54	23341ca4e4830bee	63472	1117707	8576	30224	30112	0	101027	34992
86.36	23341ca4e4830bee	63472	1117898	8576	30224	30112	0	101013	34992
86.36	23341ca4e4830bee	63472	1118089	8576	30256	30128	0	101019	35040
86.36	23341ca4e4830bee	63472	1118280	8576	30256	30128	0	101015	35040
86.36	23341ca4e4830bee	63472	1118471	8576	30256	30128	0	101013	35040
86.36	23341ca4e4830bee	63472	1118663	8576	30256	30128	0	101019	35040
86.36	23341ca4e4830bee	63472	1118854	8576	30192	30096	0	101017	35072
86.36	23341ca4e4830bee	63472	1119045	8576	30192	30096	0	101009	35072
86.54	23341ca4e4830bee	63472	1119226	8576	30192	30096	0	101021	35072
86.36	23341ca4e4830bee	63472	1119417	8576	30192	30096	0	101013	35280
86.36	23341ca4e4830bee	63488	1119608	8576	30208	30128	0	101019	35280
86.36	23341ca4e4830bee	63488	1119799	8576	30208	30128	0	101015	35280
86.36	23341ca4e4830bee	63488	1119991	8576	30208	30128	0	101015	35280
86.36	23341ca4e4830bee	63472	1120197	8576	30176	30112	0	101021	35056
86.36	23341ca4e4830bee	63472	1120388	8576	30176	30112	0	101017	35056
86.36	23341ca4e4830bee	63472	1120580	8576	30176	30112	0	101025	35056
86.36	23341ca4e4830bee	63472	1120771	8576	30176	30112	0	101019	35056
86.54	23341ca4e4830bee	63472	1120962	8576	30192	30096	0	101027	35312
86.54	23341ca4e4830bee	63472	1121160	8576	30192	30096	0	101027	35312
86.36	23341ca4e4830bee	63472	1121351	8576	30192	30096	0	101019	35312
86.36	23341ca4e4830bee	63472	1121595	8576	30192	30096	0	101013	35328
86.54	23341ca4e4830bee	63472	1121786	8576	30240	30128	0	101017	35328
86.54	23341ca4e4830bee	63472	1121967	8576	30240	30128	0	101017	35328
86.54	23341ca4e4830bee	63472	1122158	8576	30240	30128	0	101029	35328
86.54	23341ca4e4830bee	63472	1122349	8576	30208	30128	0	101027	35312
86.54	23341ca4e4830bee	63472	1122541	8576	30208	30112	0	101021	35312
86.36	23341ca4e4830bee	63472	1122732	8576	30208	30112	0	101023	35312
86.36	23341ca4e4830bee	63472	1122923	8576	30208	30112	0	101013	35312
86.54	23341ca4e4830bee	63472	1123114	8448	30208	30096	0	101023	35328
86.54	23341ca4e4830bee	63472	1123305	8448	30208	30096	0	101021	35328
86.36	23341ca4e4830bee	63472	1123496	8448	30208	30096	0	101019	35328
86.54	23341ca4e4830bee	63472	1123687	8448	30208	30096	0	101015	35328
86.54	23341ca4e4830bee	63472	1123879	8576	30272	30112	0	101021	35072
86.54	23341ca4e4830bee	63472	1124070	8576	30272	30112	0	101017	35072
86.54	23341ca4e4830bee	63472	1124261	8576	30272	30112	0	101015	35072
86.54	23341ca4e4830bee	63472	1124452	8576	30272	30112	0	101029	35072
86.36	23341ca4e4830bee	63472	1124643	8576	30224	30112	0	101025	35184
86.54	23341ca4e4830bee	63472	1124834	8576	30224	30112	0	101027	35184
86.54	23341ca4e4830bee	63472	1125026	8576	30224	30112	0	101033	35184
86.54	23341ca4e4830bee	63472	1125215	8576	30224	30112	0	101027	35264
86.36	23341ca4e4830bee	63472	1125454	8576	30208	30144	0	101025	35264
86.36	23341ca4e4830bee	63472	1125645	8576	30208	30144	0	101017	35264
86.54	23341ca4e4830bee	63472	1125836	8576	30208	30144	0	101033	35264
86.54	23341ca4e4830bee	63472	1126017	8576	30224	30112	0	101033	35328
86.54	23341ca4e4830bee	63472	1126208	8576	30224	30112	0	101033	35328
86.36	23341ca4e4830bee	63472	1126400	8576	30224	30112	0	101023	35328
86.54	23341ca4e4830bee	63472	1126591	8576	30224	30112	0	101027	35328
86.36	23341ca4e4830bee	63472	1126782	8576	30192	30112	0	101019	35296
86.54	23341ca4e4830bee	63472	1126973	8576	30192	30112	0	101023	35296
86.54	23341ca4e4830bee	63472	1127164	8576	30192	30112	0	101021	35296
86.54	23341ca4e4830bee	63472	1127355	8576	30192	30112	0	101023	35296
86.54	23341ca4e4830bee	63472	1127546	8576	30224	30112	0	101027	35232
86.54	23341ca4e4830bee	63472	1127728	8576	30224	30112	0	101027	35232
86.54	23341ca4e4830bee	63472	1127919	8576	30224	30112	0	101027	35232
86.54	23341ca4e4830bee	63472	1128110	8576	30224	30112	0	101023	35008
86.54	23341ca4e4830bee	63472	1128301	8576	30224	30112	0	101027	35008
86.54	23341ca4e4830bee	63472	1128492	8576	30224	30112	0	101023	35008
86.54	23341ca4e4830bee	63472	1128683	8576	30224	30112	0	101023	35008
86.54	23341ca4e4830bee	63472	1128875	8448	30208	30112	0	101027	35232
86.54	23341ca4e4830bee	63472	1129066	8448	30208	30112	0	101033	35232
86.54	23341ca4e4830bee	63472	1129289	8448	30208	30112	0	101015	35232
86.54	23341ca4e4830bee	63472	1129494	8576	30208	30112	0	101011	35232
86.54	23341ca4e4830bee	63472	1129685	8576	30192	30144	0	101021	35040
86.54	23341ca4e4830bee	63472	1129876	8576	30192	30144	0	101021	35040
86.54	23341ca4e4830bee	63472	1130067	8576	30192	30144	0	101021	35040
86.54	23341ca4e4830bee	63472	1130248	8576	30192	30144	0	101021	35216
86.54	23341ca4e4830bee	63472	1130439	8576	30192	30144	0	101021	35216
86.54	23341ca4e4830bee	63472	1130634	8576	30192	30144	0	101017	35216
86.54	23341ca4e4830bee	63472	1130825	8576	30192	30144	0	101027	35216
86.54	23341ca4e4830bee	63472	1131016	8576	30224	30144	0	101021	34960
86.54	23341ca4e4830bee	63472	1131207	8576	30224	30128	0	101015	34960
86.54	23341ca4e4830bee	63472	1131389	8576	30224	30128	0	101021	34960
86.54	23341ca4e4830bee	63472	1131580	8576	30224	30128	0	101027	34960
86.54	23341ca4e4830bee	63472	1131771	8576	30208	30128	0	101033	35024
86.54	23341ca4e4830bee	63472	1131962	8576	30208	30128	0	101021	35024
86.54	23341ca4e4830bee	63472	1132153	8576	30208	30128	0	101021	35024
86.54	23341ca4e4830bee	63472	1132344	8576	30208	30128	0	101027	35024
86.54	23341ca4e4830bee	63472	1132536	8576	30224	30128	0	101027	35168
86.54	23341ca4e4830bee	63472	1132727	8576	30224	30128	0	101023	35168
86.36	23341ca4e4830bee	63472	1132908	8576	30224	30128	0	101013	35168
86.54	23341ca4e4830bee	63472	1133144	8576	30224	30128	0	101021	34912
86.54	23341ca4e4830bee	63472	1133335	8576	30192	30096	0	101023	34912
86.54	23341ca4e4830bee	63472	1133526	8576	30192	30096	0	101021	34912
86.54	23341ca4e4830bee	63472	1133717	8576	30192	30096	0	101027	34912
86.54	23341ca4e4830bee	63472	1133908	8576	30208	30096	0	101017	35088
86.54	23341ca4e4830bee	63472	1134099	8576	30208	30112	0	101015	35088
86.54	23341ca4e4830bee	63472	1134291	8576	30208	30112	0	101027	35088
86.54	23341ca4e4830bee	63472	1134482	8576	30208	30112	0	101021	35088
86.54	23341ca4e4830bee	63472	1134684	8576	30224	30112	0	101021	35184
86.54	23341ca4e4830bee	63472	1134875	8576	30224	30112	0	101021	35184
86.54	23341ca4e4830bee	63472	1135067	8576	30224	30112	0	101027	35184
86.54	23341ca4e4830bee	63472	1135258	8576	30224	30112	0	101021	35184
86.54	23341ca4e4830bee	63488	1135439	8576	30208	30112	0	101021	35248
86.54	23341ca4e4830bee	63488	1135635	8576	30208	30112	0	101021	35248
86.54	23341ca4e4830bee	63488	1135826	8576	30208	30112	0	101017	35248
86.54	23341ca4e4830bee	63488	1136017	8576	30208	30112	0	101021	35248
86.54	23341ca4e4830bee	63520	1136199	8576	30192	30144	0	101023	35200
86.54	23341ca4e4830bee	63520	1136390	8576	30192	30144	1	101027	35200
86.54	23341ca4e4830bee	63520	1136581	8576	30192	30144	1	101027	35200
86.54	23341ca4e4830bee	64480	1136772	8576	30192	30144	1	101017	35104
86.54	23341ca4e4830bee	64480	1137010	8576	30032	30976	1	101021	35104
86.54	23341ca4e4830bee	64480	1137202	8576	30032	30976	1	101023	35104
86.54	23341ca4e4830bee	64480	1137393	8576	30032	30976	1	101027	35104
86.54	23341ca4e4830bee	63744	1137584	8448	29984	27792	1	101027	35072
86.36	23341ca4e4830bee	63744	1137775	8448	29984	27792	1	101029	35072
86.36	23341ca4e4830bee	63744	1137966	8448	29984	27792	1	101023	35072
86.36	23341ca4e4830bee	63744	1138157	8448	29984	27792	1	101019	35072
86.36	23341ca4e4830bee	64944	1138348	8448	29776	28128	1	101019	34992
86.36	23341ca4e4830bee	64944	1138529	8448	29776	28128	1	101019	34992
86.36	23341ca4e4830bee	64944	1138720	8448	29776	28128	1	101019	34992
86.36	23341ca4e4830bee	64944	1138911	8576	29776	28128	1	101015	34992
86.36	23341ca4e4830bee	65232	1139102	8576	29840	28192	1	101029	35344
86.36	23341ca4e4830bee	65232	1139294	8576	29840	28192	1	101023	35344
86.36	23341ca4e4830bee	65232	1139485	8576	29840	28192	1	101023	35344
86.36	23341ca4e4830bee	65248	1139676	8576	29776	28192	1	101027	35008
86.36	23341ca4e4830bee	65248	1139868	8576	29776	28192	1	101017	35008
86.36	23341ca4e4830bee	65248	1140049	8576	29776	28192	1	101017	35008
86.36	23341ca4e4830bee	65248	1140263	8576	29776	28192	1	101011	35008
86.36	23341ca4e4830bee	65248	1140454	8576	29776	28240	1	101027	35312
86.36	23341ca4e4830bee	65248	1140646	8576	29776	28240	1	101021	35312
86.36	23341ca4e4830bee	65248	1140888	8576	29776	28240	1	101023	35312
86.36	23341ca4e4830bee	65248	1141079	8576	29776	28240	1	101021	35312
86.36	23341ca4e4830bee	65264	1141260	8576	29808	28192	1	101027	34960
86.36	23341ca4e4830bee	65264	1141451	8576	29808	28192	0	101023	34960
86.36	23341ca4e4830bee	65264	1141649	8576	29808	28192	1	101021	34960
86.36	23341ca4e4830bee	65264	1141830	8576	29808	28192	1	101021	35264
86.36	23341ca4e4830bee	65264	1142021	8576	29728	28208	1	101023	35264
86.36	23341ca4e4830bee	65264	1142212	8576	29728	28208	1	101023	35264
86.36	23341ca4e4830bee	65264	1142407	8576	29728	28208	0	101015	35264
86.36	23341ca4e4830bee	65264	1142598	8448	29760	28176	0	101019	35120
86.36	23341ca4e4830bee	65264	1142789	8448	29760	28176	0	101021	35120
86.36	23341ca4e4830bee	65264	1142970	8448	29760	28176	0	101021	35120
86.36	23341ca4e4830bee	65264	1143161	8448	29760	28176	0	101023	35120
86.36	23341ca4e4830bee	65264	1143352	8448	29776	28208	1	101023	34976
86.36	23341ca4e4830bee	65264	1143544	8448	29776	28208	1	101019	34976
86.36	23341ca4e4830bee	65264	1143735	8448	29776	28208	1	101027	34976
86.36	23341ca4e4830bee	65264	1143926	8448	29776	28208	1	101015	34976
86.36	23341ca4e4830bee	63664	1144117	8576	29888	27968	1	101019	35360
86.36	23341ca4e4830bee	63664	1144309	8576	29888	27968	1	101019	35360
86.36	23341ca4e4830bee	63664	1144490	8576	29888	27968	1	101015	35360
86.36	23341ca4e4830bee	64096	1144731	8576	29888	27968	1	101019	35088
86.36	23341ca4e4830bee	64096	1144922	8576	29344	27712	1	101023	35088
86.36	23341ca4e4830bee	64096	1145114	8576	29344	27712	1	101017	35088
86.36	23341ca4e4830bee	64096	1145305	8576	29344	27712	1	101021	35088
86.36	23341ca4e4830bee	64496	1145496	8576	29856	28784	1	101019	35328
86.36	23341ca4e4830bee	64496	1145687	8576	29856	28784	1	101025	35328
86.36	23341ca4e4830bee	64496	1145878	8576	29856	28784	1	101019	35328
86.36	23341ca4e4830bee	64496	1146069	8576	29856	28784	1	101025	35328
86.36	23341ca4e4830bee	64480	1146250	8576	29808	28736	0	101027	35072
86.36	23341ca4e4830bee	64480	1146441	8576	29808	28736	1	101019	35072
86.36	23341ca4e4830bee	64480	1146632	8576	29808	28736	1	101031	35072
86.36	23341ca4e4830bee	64480	1146823	8576	29808	28736	1	101019	35072
86.18	23341ca4e4830bee	64496	1147014	8448	29872	28736	1	101029	35008
86.18	23341ca4e4830bee	64496	1147206	8448	29872	28736	0	101011	35008
86.18	23341ca4e4830bee	64496	1147397	8448	29872	28736	0	101025	35008
86.18	23341ca4e4830bee	64496	1147588	8576	29872	28736	0	101017	35168
86.18	23341ca4e4830bee	64544	1147779	8576	29872	28736	0	101013	35168
86.18	23341ca4e4830bee	64544	1147960	8576	29872	28736	0	101011	35168
86.18	23341ca4e4830bee	64544	1148152	8576	29872	28736	0	101013	35168
86.18	23341ca4e4830bee	64496	1148343	8576	29872	28736	0	101031	35264
86.18	23341ca4e4830bee	64496	1148576	8576	29776	28784	0	101009	35264
86.18	23341ca4e4830bee	64496	1148767	8576	29776	28784	0	101019	35264
86.18	23341ca4e4830bee	64496	1148958	8576	29776	28784	0	101017	35264
86.18	23341ca4e4830bee	64512	1149149	8576	29872	28720	0	101031	35056
86.18	23341ca4e4830bee	64512	1149331	8576	29872	28720	0	101021	35056
86.18	23341ca4e4830bee	64512	1149522	8576	29872	28720	1	101021	35056
86.18	23341ca4e4830bee	64512	1149713	8576	29872	28720	1	101023	35056
86.18	23341ca4e4830bee	64480	1149904	8576	29856	28720	0	101023	35072
86.18	23341ca4e4830bee	64480	1150095	8576	29856	28720	0	101015	35072
86.18	23341ca4e4830bee	64480	1150286	8576	29856	28720	0	101025	35072
86.18	23341ca4e4830bee	64480	1150477	8576	29856	28720	0	101019	35120
86.18	23341ca4e4830bee	64464	1150668	8576	29920	28736	0	101019	35120
86.18	23341ca4e4830bee	64464	1150859	8576	29920	28736	0	101025	35120
86.18	23341ca4e4830bee	64464	1151041	8576	29920	28736	0	101025	35120
86.18	23341ca4e4830bee	64480	1151232	8576	29920	28736	0	101015	35088
86.18	23341ca4e4830bee	64480	1151423	8576	29840	28736	0	101019	35088
86.18	23341ca4e4830bee	64480	1151614	8576	29840	28736	0	101019	35088
86.18	23341ca4e4830bee	64480	1151805	8576	29840	28736	0	101019	35088
86.18	23341ca4e4830bee	64480	1151996	8448	29856	28768	0	101031	35136
86.18	23341ca4e4830bee	64480	1152188	8448	29856	28768	0	101015	35136
86.18	23341ca4e4830bee	64480	1152422	8448	29856	28768	0	101013	35136
86.18	23341ca4e4830bee	64480	1152614	8448	29856	28768	0	101025	35136
86.18	23341ca4e4830bee	64480	1152805	8448	29856	28752	0	101019	35040
86.18	23341ca4e4830bee	64480	1152996	8448	29856	28752	0	101029	35040
86.18	23341ca4e4830bee	64480	1153187	8448	29856	28752	0	101025	35040
86.18	23341ca4e4830bee	64480	1153387	8576	29856	28752	0	101025	35056
86.18	23341ca4e4830bee	64480	1153578	8576	29872	28704	0	101029	35056
86.18	23341ca4e4830bee	64480	1153769	8576	29872	28704	0	101025	35056
86.18	23341ca4e4830bee	64480	1153960	8576	29872	28704	0	101029	35056
86.18	23341ca4e4830bee	64496	1154149	8576	29872	28720	0	101025	35232
86.18	23341ca4e4830bee	64496	1154340	8576	29872	28720	0	101023	35232
86.18	23341ca4e4830bee	64496	1154521	8576	29872	28720	0	101029	35232
86.18	23341ca4e4830bee	64496	1154712	8576	29872	28720	0	101029	35232
86.18	23341ca4e4830bee	64496	1154903	8576	29856	28720	0	101029	35104
86.18	23341ca4e4830bee	64496	1155094	8576	29856	28720	0	101025	35104
86.18	23341ca4e4830bee	64496	1155305	8576	29856	28720	0	101017	35104
86.18	23341ca4e4830bee	64496	1155497	8576	29856	28720	0	101017	35104
86.18	23341ca4e4830bee	64480	1155688	8576	29808	28720	0	101027	35088
86.18	23341ca4e4830bee	64480	1155879	8576	29808	28720	0	101021	35088
86.18	23341ca4e4830bee	64480	1156070	8576	29808	28720	0	101017	35088
86.18	23341ca4e4830bee	64480	1156302	8448	29824	28720	0	101021	35200
86.18	23341ca4e4830bee	64480	1156493	8448	29824	28720	0	101015	35200
86.18	23341ca4e4830bee	64480	1156684	8448	29824	28720	0	101017	35200
86.18	23341ca4e4830bee	64480	1156875	8448	29824	28720	0	101009	35200
86.18	23341ca4e4830bee	64496	1157066	8576	29840	28736	0	101011	35184
86.36	23341ca4e4830bee	64496	1157257	8576	29840	28736	0	101019	35184
86.18	23341ca4e4830bee	64496	1157448	8576	29840	28736	0	101015	35184
86.18	23341ca4e4830bee	64496	1157640	8576	29840	28736	0	101021	35184
86.36	23341ca4e4830bee	64512	1157831	8448	29840	28736	0	101013	35104
86.36	23341ca4e4830bee	64512	1158012	8448	29840	28736	0	101019	35104
86.18	23341ca4e4830bee	64512	1158203	8448	29840	28736	0	101015	35104
86.36	23341ca4e4830bee	64512	1158394	8576	29840	28736	0	101013	35104
86.36	23341ca4e4830bee	64496	1158585	8576	29856	28736	0	101013	35184
86.36	23341ca4e4830bee	64496	1158776	8576	29856	28736	0	101027	35184
86.36	23341ca4e4830bee	64496	1158967	8576	29856	28736	0	101023	35184
86.36	23341ca4e4830bee	64512	1159159	8576	29856	28736	0	101023	35088
86.36	23341ca4e4830bee	64512	1159350	8576	29872	28752	0	101013	35088
86.36	23341ca4e4830bee	64512	1159541	8576	29872	28752	0	101013	35088
86.36	23341ca4e4830bee	64512	1159722	8576	29872	28752	0	101021	35088
86.36	23341ca4e4830bee	64496	1159913	8576	29872	28752	0	101023	35248
86.36	23341ca4e4830bee	64496	1160150	8576	29872	28704	0	101021	35248
86.36	23341ca4e4830bee	64496	1160341	8576	29872	28704	0	101023	35248
86.36	23341ca4e4830bee	64496	1160522	8576	29872	28704	0	101021	35248
86.36	23341ca4e4830bee	64496	1160713	8576	29872	28736	0	101023	35200
86.36	23341ca4e4830bee	64496	1160904	8576	29872	28736	0	101027	35200
86.36	23341ca4e4830bee	64496	1161095	8576	29872	28736	0	101027	35200
86.36	23341ca4e4830bee	64496	1161286	8576	29872	28736	0	101023	35200
86.36	23341ca4e4830bee	64496	1161478	8576	29856	28736	0	101023	35232
86.36	23341ca4e4830bee	64496	1161672	8576	29856	28736	0	101021	35232
86.36	23341ca4e4830bee	64496	1161863	8576	29856	28736	0	101021	35232
86.36	23341ca4e4830bee	64496	1162054	8576	29856	28736	0	101023	35200
86.36	23341ca4e4830bee	64496	1162246	8576	29872	28768	0	101027	35200
86.36	23341ca4e4830bee	64496	1162437	8576	29872	28768	0	101023	35200
86.36	23341ca4e4830bee	64496	1162628	8576	29872	28768	0	101023	35200
86.36	23341ca4e4830bee	64480	1162819	8576	29824	28752	0	101029	35216
86.36	23341ca4e4830bee	64480	1163010	8576	29824	28752	0	101023	35216
86.36	23341ca4e4830bee	64480	1163201	8576	29824	28752	0	101023	35216
86.36	23341ca4e4830bee	64480	1163383	8576	29824	28752	0	101027	35216
86.36	23341ca4e4830bee	64496	1163574	8576	29872	28720	0	101023	35136
86.36	23341ca4e4830bee	64496	1163765	8576	29872	28720	0	101025	35136
86.36	23341ca4e4830bee	64496	1164014	8576	29872	28720	0	101023	35136
86.36	23341ca4e4830bee	64496	1164205	8576	29872	28720	0	101019	35104
86.36	23341ca4e4830bee	64480	1164396	8576	29872	28736	0	101023	35104
86.36	23341ca4e4830bee	64480	1164587	8576	29872	28736	0	101029	35104
86.36	23341ca4e4830bee	64480	1164778	8576	29872	28736	0	101023	35104
86.36	23341ca4e4830bee	64480	1164969	8576	29872	28736	0	101019	35152
86.36	23341ca4e4830bee	64480	1165160	8576	29872	28768	0	101017	35152
86.36	23341ca4e4830bee	64480	1165352	8576	29872	28768	0	101023	35152
86.36	23341ca4e4830bee	64480	1165533	8576	29872	28768	0	101029	35152
86.36	23341ca4e4830bee	64496	1165724	8576	29872	28784	0	101023	35056
86.36	23341ca4e4830bee	64496	1165915	8576	29872	28784	0	101019	35056
86.36	23341ca4e4830bee	64496	1166106	8576	29872	28784	0	101019	35056
86.36	23341ca4e4830bee	64496	1166298	8576	29872	28784	0	101023	35056
86.36	23341ca4e4830bee	64496	1166489	8448	29856	28736	0	101017	35056
86.36	23341ca4e4830bee	64496	1166684	8448	29856	28736	0	101023	35056
86.36	23341ca4e4830bee	64496	1166876	8448	29856	28736	0	101011	35056
86.36	23341ca4e4830bee	64496	1167067	8576	29856	28736	0	101019	35056
86.36	23341ca4e4830bee	64496	1167258	8576	29808	28720	0	101019	35088
86.36	23341ca4e4830bee	64496	1167449	8576	29808	28720	0	101023	35088
86.36	23341ca4e4830bee	64496	1167640	8576	29808	28720	0	101033	35088
86.36	23341ca4e4830bee	64480	1167872	8576	29840	28736	0	101021	35216
86.36	23341ca4e4830bee	64480	1168054	8576	29840	28736	0	101025	35216
86.36	23341ca4e4830bee	64480	1168245	8576	29840	28736	0	101013	35216
86.36	23341ca4e4830bee	64480	1168436	8576	29840	28736	0	101025	35216
86.36	23341ca4e4830bee	64496	1168627	8576	29840	28736	0	101011	35008
86.36	23341ca4e4830bee	64496	1168818	8576	29840	28736	0	101017	35008
86.36	23341ca4e4830bee	64496	1169009	8576	29840	28736	0	101011	35008
86.36	23341ca4e4830bee	64496	1169200	8576	29840	28736	0	101025	35008
86.36	23341ca4e4830bee	64480	1169391	8576	29856	28768	0	101011	35200
86.36	23341ca4e4830bee	64480	1169582	8576	29856	28768	0	101023	35200
86.36	23341ca4e4830bee	64480	1169763	8576	29856	28768	0	101029	35200
86.36	23341ca4e4830bee	64480	1169955	8448	29856	28768	0	101017	35200
86.36	23341ca4e4830bee	64496	1170146	8448	29840	28752	0	101027	35232
86.36	23341ca4e4830bee	64496	1170345	8448	29840	28752	0	101019	35232
86.36	23341ca4e4830bee	64496	1170536	8448	29840	28752	0	101023	35232
86.36	23341ca4e4830bee	64512	1170727	8576	29840	28752	0	101021	35104
86.36	23341ca4e4830bee	64512	1170919	8576	29840	28752	0	101015	35104
86.36	23341ca4e4830bee	64512	1171110	8576	29840	28752	0	101027	35104
86.36	23341ca4e4830bee	64512	1171302	8576	29840	28752	0	101019	35104
86.36	23341ca4e4830bee	64512	1171483	8576	29840	28736	0	101015	35072
86.36	23341ca4e4830bee	64512	1171724	8576	29840	28736	0	101015	35072
86.36	23341ca4e4830bee	64512	1171915	8576	29840	28736	0	101023	35072
86.36	23341ca4e4830bee	64512	1172106	8576	29840	28736	0	101023	35072
86.36	23341ca4e4830bee	64512	1172298	8448	29856	28720	0	101023	35072
86.36	23341ca4e4830bee	64512	1172489	8448	29856	28720	0	101021	35072
86.36	23341ca4e4830bee	64512	1172680	8448	29856	28720	0	101019	35072
86.36	23341ca4e4830bee	64512	1172872	8576	29856	28720	0	101015	35296
86.36	23341ca4e4830bee	64496	1173063	8576	29872	28752	0	101021	35296
86.36	23341ca4e4830bee	64496	1173244	8576	29872	28752	0	101019	35296
86.36	23341ca4e4830bee	64496	1173435	8576	29872	28752	0	101019	35296
86.36	23341ca4e4830bee	64496	1173626	8576	29872	28752	0	101015	35248
86.36	23341ca4e4830bee	64496	1173817	8576	29840	28736	0	101023	35248
86.36	23341ca4e4830bee	64496	1174008	8576	29840	28736	0	101017	35248
86.36	23341ca4e4830bee	64496	1174199	8576	29840	28736	0	101021	35248
86.36	23341ca4e4830bee	64496	1174391	8576	29872	28736	0	101021	35152
86.36	23341ca4e4830bee	64496	1174582	8576	29872	28736	0	101019	35152
86.36	23341ca4e4830bee	64496	1174773	8576	29872	28736	0	101009	35152
86.36	23341ca4e4830bee	64496	1174964	8576	29872	28736	0	101019	35152
86.36	23341ca4e4830bee	64496	1175155	8448	29824	28752	0	101023	35072
86.36	23341ca4e4830bee	64496	1175347	8448	29824	28752	0	101005	35072
86.36	23341ca4e4830bee	64496	1175591	8448	29824	28752	0	101019	35072
86.36	23341ca4e4830bee	64080	1175782	8448	29824	28752	0	101023	34992
86.36	23341ca4e4830bee	64080	1175973	8448	29584	27872	1	101023	34992
86.36	23341ca4e4830bee	64080	1176154	8448	29584	27872	1	101019	34992
86.36	23341ca4e4830bee	64080	1176345	8448	29584	27872	1	101019	34992
86.36	23341ca4e4830bee	62736	1176536	8448	29680	27872	1	101023	35264
86.36	23341ca4e4830bee	62736	1176727	8448	29680	27872	1	101023	35264
86.36	23341ca4e4830bee	62736	1176918	8448	29680	27872	1	101027	35264
86.36	23341ca4e4830bee	62736	1177109	8448	29680	27872	1	101021	35264
86.36	23341ca4e4830bee	62576	1177301	8448	29680	27776	1	101023	35024
86.36	23341ca4e4830bee	62576	1177492	8448	29680	27776	0	101021	35024
86.36	23341ca4e4830bee	62576	1177683	8448	29680	27776	1	101027	35024
86.36	23341ca4e4830bee	62576	1177874	8448	29680	27776	1	101023	35024
86.36	23341ca4e4830bee	64032	1178066	8576	30560	30272	1	101019	35152
86.36	23341ca4e4830bee	64032	1178257	8576	30560	30272	0	101013	35152
86.36	23341ca4e4830bee	64032	1178451	8576	30560	30272	1	101025	35152
86.36	23341ca4e4830bee	64032	1178642	8448	30560	30272	0	101017	35152
86.36	23341ca4e4830bee	63504	1178824	8448	30400	30208	1	101017	35024
86.36	23341ca4e4830bee	63504	1179015	8448	30400	30208	1	101017	35024
86.36	23341ca4e4830bee	63504	1179206	8448	30400	30208	1	101023	35024
86.36	23341ca4e4830bee	63472	1179449	8448	30416	30272	1	101029	35136
86.36	23341ca4e4830bee	63472	1179640	8448	30416	30272	1	101021	35136
86.36	23341ca4e4830bee	63472	1179831	8448	30416	30272	0	101023	35136
86.36	23341ca4e4830bee	63472	1180022	8448	30416	30272	0	101023	35136
86.36	23341ca4e4830bee	63472	1180213	8448	30448	30240	1	101023	35024
86.36	23341ca4e4830bee	63472	1180394	8448	30448	30240	1	101021	35024
86.36	23341ca4e4830bee	63472	1180585	8448	30448	30240	1	101011	35024
86.36	23341ca4e4830bee	63472	1180777	8448	30448	30240	1	101023	35024
86.36	23341ca4e4830bee	63472	1180968	8576	30448	30224	1	101019	35008
86.36	23341ca4e4830bee	63472	1181159	8576	30448	30224	0	101015	35008
86.36	23341ca4e4830bee	63472	1181350	8576	30448	30224	0	101015	35008
86.36	23341ca4e4830bee	63472	1181541	8448	30448	30224	0	101017	35280
86.36	23341ca4e4830bee	63472	1181732	8448	30400	30272	0	101015	35280
86.36	23341ca4e4830bee	63472	1181923	8448	30400	30272	0	101011	35280
86.36	23341ca4e4830bee	63472	1182104	8448	30400	30272	0	101017	35280
86.36	23341ca4e4830bee	63472	1182296	8448	30416	30272	0	101019	35024
86.36	23341ca4e4830bee	63472	1182487	8448	30416	30272	0	101019	35024
86.36	23341ca4e4830bee	63472	1182688	8448	30416	30272	0	101023	35024
86.36	23341ca4e4830bee	63472	1182879	8448	30416	30272	0	101019	35024
86.36	23341ca4e4830bee	63472	1183070	8448	30400	30256	0	101017	35152
86.36	23341ca4e4830bee	63472	1183306	8448	30400	30256	0	101025	35152
86.36	23341ca4e4830bee	63472	1183497	8448	30400	30256	0	101019	35152
86.36	23341ca4e4830bee	63472	1183688	8448	30400	30256	0	101013	35152
86.36	23341ca4e4830bee	63488	1183879	8448	30432	30272	0	101023	35072
86.36	23341ca4e4830bee	63488	1184070	8448	30432	30272	0	101019	35072
86.36	23341ca4e4830bee	63488	1184261	8448	30432	30272	0	101023	35072
86.36	23341ca4e4830bee	63472	1184452	8576	30432	30272	0	101029	35088
86.36	23341ca4e4830bee	63472	1184643	8576	30416	30256	0	101023	35088
86.36	23341ca4e4830bee	63472	1184834	8576	30416	30256	0	101023	35088
86.36	23341ca4e4830bee	63472	1185015	8576	30416	30256	0	101025	35088
86.36	23341ca4e4830bee	63488	1185206	8576	30432	30272	0	101025	35216
86.36	23341ca4e4830bee	63488	1185397	8576	30432	30272	0	101029	35216
86.36	23341ca4e4830bee	63488	1185589	8576	30432	30272	0	101019	35216
86.36	23341ca4e4830bee	63488	1185780	8576	30432	30272	0	101029	35216
86.36	23341ca4e4830bee	63488	1185971	8576	30448	30272	0	101023	35184
86.36	23341ca4e4830bee	63488	1186162	8576	30448	30272	0	101023	35184
86.36	23341ca4e4830bee	63488	1186353	8576	30448	30272	0	101023	35184
86.36	23341ca4e4830bee	63488	1186534	8576	30448	30272	0	101019	35184
86.36	23341ca4e4830bee	63488	1186726	8448	30432	30272	0	101015	35216
86.36	23341ca4e4830bee	63488	1186917	8448	30432	30272	0	101017	35216
86.36	23341ca4e4830bee	63488	1187164	8448	30432	30272	0	101013	35216
86.36	23341ca4e4830bee	63472	1187345	8448	30432	30272	0	101019	35024
86.36	23341ca4e4830bee	63472	1187536	8448	30400	30256	0	101019	35024
86.36	23341ca4e4830bee	63472	1187728	8448	30400	30256	0	101015	35024
86.36	23341ca4e4830bee	63472	1187919	8448	30400	30256	0	101019	35024
86.36	23341ca4e4830bee	63488	1188110	8448	30416	30272	0	101013	35264
86.36	23341ca4e4830bee	63488	1188301	8448	30416	30272	0	101013	35264
86.36	23341ca4e4830bee	63488	1188493	8448	30416	30272	0	101023	35264
86.36	23341ca4e4830bee	63488	1188684	8448	30416	30272	0	101019	35264
86.36	23341ca4e4830bee	63472	1188875	8576	30416	30288	0	101023	35008
86.36	23341ca4e4830bee	63472	1189066	8576	30416	30288	0	101031	35008
86.36	23341ca4e4830bee	63472	1189257	8576	30416	30288	0	101013	35008
86.36	23341ca4e4830bee	63472	1189448	8448	30416	30288	0	101023	35008
86.36	23341ca4e4830bee	63488	1189651	8448	30416	30272	0	101017	35104
86.36	23341ca4e4830bee	63488	1189842	8448	30416	30272	0	101029	35104
86.36	23341ca4e4830bee	63488	1190033	8448	30416	30272	0	101017	35104
86.36	23341ca4e4830bee	63488	1190224	8448	30416	30272	0	101023	35232
86.36	23341ca4e4830bee	63488	1190406	8448	30432	30240	0	101023	35232
86.36	23341ca4e4830bee	63488	1190597	8448	30432	30240	0	101029	35232
86.36	23341ca4e4830bee	63488	1190788	8448	30432	30240	0	101023	35232
86.36	23341ca4e4830bee	63488	1191039	8448	30400	30304	0	101019	35232
86.36	23341ca4e4830bee	63488	1191230	8448	30400	30304	0	101013	35232
86.36	23341ca4e4830bee	63488	1191421	8448	30400	30304	0	101025	35232
86.36	23341ca4e4830bee	63488	1191612	8576	30400	30304	0	101023	35232
86.36	23341ca4e4830bee	63488	1191803	8576	30400	30256	0	101017	35200
86.36	23341ca4e4830bee	63488	1191995	8576	30400	30256	0	101023	35200
86.36	23341ca4e4830bee	63488	1192176	8576	30400	30256	0	101019	35200
86.36	23341ca4e4830bee	63488	1192367	8576	30400	30256	0	101009	35200
86.36	23341ca4e4830bee	63488	1192558	8576	30416	30304	0	101019	35280
86.36	23341ca4e4830bee	63488	1192749	8576	30416	30304	0	101013	35280
86.36	23341ca4e4830bee	63488	1192940	8576	30416	30304	0	101023	35280
86.36	23341ca4e4830bee	63472	1193131	8576	30400	30304	0	101009	34976
86.36	23341ca4e4830bee	63472	1193322	8576	30400	30288	0	101019	34976
86.36	23341ca4e4830bee	63472	1193513	8576	30400	30288	0	101023	34976
86.36	23341ca4e4830bee	63472	1193705	8576	30400	30288	0	101023	34976
86.36	23341ca4e4830bee	63488	1193886	8448	30432	30288	0	101017	35200
86.36	23341ca4e4830bee	63488	1194077	8448	30432	30288	0	101025	35200
86.36	23341ca4e4830bee	63488	1194268	8448	30432	30288	0	101017	35200
86.36	23341ca4e4830bee	63488	1194459	8448	30432	30288	0	101029	35200
86.36	23341ca4e4830bee	63488	1194651	8576	30448	30288	0	101019	35152