Digit_temp	id	light	timestamp	acc_z	acc_y	acc_x	motion	pressure	humid
86.0	23341ca4e4830bee	61952	1613501	8448	32240	25728	0	101009	35120
86.0	23341ca4e4830bee	61952	1613703	8448	32240	25728	0	101009	35120
86.0	23341ca4e4830bee	61952	1613894	8448	32240	25728	0	101003	35120
86.0	23341ca4e4830bee	61952	1614085	8448	32240	25728	0	101003	35120
86.0	23341ca4e4830bee	61968	1614266	8448	32192	25728	0	101015	34976
86.0	23341ca4e4830bee	61968	1614457	8448	32192	25728	0	101011	34976
86.0	23341ca4e4830bee	61968	1614648	8448	32192	25728	0	101007	34976
86.0	23341ca4e4830bee	61968	1614839	8576	32192	25728	0	101009	34976
86.0	23341ca4e4830bee	61968	1615030	8576	32224	25728	0	101011	35232
86.0	23341ca4e4830bee	61968	1615221	8576	32224	25728	0	101021	35232
86.0	23341ca4e4830bee	61968	1615412	8576	32224	25728	0	101007	35232
86.0	23341ca4e4830bee	61968	1615603	8448	32224	25728	0	101015	34960
86.0	23341ca4e4830bee	61968	1615794	8448	32224	25760	0	101023	34960
86.0	23341ca4e4830bee	61968	1615975	8448	32224	25760	0	101021	34960
86.0	23341ca4e4830bee	61968	1616167	8448	32224	25760	0	101013	34960
86.0	23341ca4e4830bee	61952	1616369	8448	32224	25728	0	101011	35200
86.0	23341ca4e4830bee	61952	1616560	8448	32224	25728	0	101011	35200
86.0	23341ca4e4830bee	61952	1616751	8448	32224	25728	0	101013	35200
86.0	23341ca4e4830bee	61952	1616942	8448	32224	25728	0	101017	35200
86.0	23341ca4e4830bee	61952	1617134	8448	32256	25680	0	101013	35328
86.0	23341ca4e4830bee	61952	1617366	8448	32256	25680	0	101011	35328
86.0	23341ca4e4830bee	61952	1617557	8448	32256	25680	0	101017	35328
86.0	23341ca4e4830bee	61952	1617748	8448	32256	25680	0	101005	35056
86.0	23341ca4e4830bee	61968	1617939	8448	32224	25696	0	101009	35056
86.0	23341ca4e4830bee	61968	1618130	8448	32224	25696	0	101007	35056
86.0	23341ca4e4830bee	61968	1618321	8448	32224	25696	0	101005	35056
86.0	23341ca4e4830bee	61952	1618512	8448	32240	25696	0	101017	35184
86.0	23341ca4e4830bee	61952	1618703	8448	32240	25680	0	101023	35184
86.0	23341ca4e4830bee	61952	1618894	8448	32240	25680	0	101013	35184
86.0	23341ca4e4830bee	61952	1619085	8448	32240	25680	0	101029	35184
86.0	23341ca4e4830bee	61968	1619267	8448	32256	25664	0	101007	35136
86.0	23341ca4e4830bee	61968	1619458	8448	32256	25664	0	101013	35136
86.0	23341ca4e4830bee	61968	1619649	8448	32256	25664	0	101013	35136
86.0	23341ca4e4830bee	61968	1619840	8448	32256	25664	0	101011	35136
86.0	23341ca4e4830bee	61952	1620032	8448	32224	25696	0	101021	35280
86.0	23341ca4e4830bee	61952	1620223	8448	32224	25696	0	101017	35280
86.0	23341ca4e4830bee	61952	1620414	8448	32224	25696	0	101017	35280
86.0	23341ca4e4830bee	61952	1620605	8448	32224	25696	0	101019	35280
86.0	23341ca4e4830bee	61952	1620786	8448	32256	25696	0	101011	35312
86.0	23341ca4e4830bee	61952	1620978	8448	32256	25696	0	101011	35312
86.0	23341ca4e4830bee	61952	1621220	8448	32256	25696	0	101019	35312
86.0	23341ca4e4830bee	61952	1621411	8448	32256	25712	0	101017	35296
86.0	23341ca4e4830bee	61952	1621602	8448	32256	25712	0	101011	35296
86.0	23341ca4e4830bee	61952	1621793	8448	32256	25712	0	101017	35296
86.0	23341ca4e4830bee	61952	1621984	8448	32256	25712	0	101017	35296
86.0	23341ca4e4830bee	61952	1622175	8448	32256	25728	0	101019	35072
86.0	23341ca4e4830bee	61952	1622357	8448	32256	25728	0	101023	35072
86.0	23341ca4e4830bee	61952	1622548	8448	32256	25728	0	101017	35072
86.0	23341ca4e4830bee	61952	1622739	8448	32256	25728	0	101019	35072
86.0	23341ca4e4830bee	61952	1622930	8448	32256	25696	0	101021	35120
86.0	23341ca4e4830bee	61952	1623121	8448	32256	25696	0	101013	35120
86.0	23341ca4e4830bee	61952	1623312	8448	32256	25696	0	101013	35120
86.0	23341ca4e4830bee	61952	1623503	8448	32256	25696	0	101017	35120
86.0	23341ca4e4830bee	61952	1623694	8448	32224	25728	0	101013	35312
86.0	23341ca4e4830bee	61952	1623885	8448	32224	25728	0	101019	35312
86.0	23341ca4e4830bee	61952	1624067	8448	32224	25728	0	101013	35312
86.0	23341ca4e4830bee	61952	1624258	8448	32224	25728	0	101019	35024
86.0	23341ca4e4830bee	61952	1624449	8448	32240	25744	0	101007	35024
86.0	23341ca4e4830bee	61952	1624640	8448	32240	25744	0	101009	35024
86.0	23341ca4e4830bee	61952	1624832	8448	32240	25744	0	101017	35024
86.0	23341ca4e4830bee	61952	1625079	8448	32256	25712	0	101019	35344
86.0	23341ca4e4830bee	61952	1625270	8448	32256	25712	0	101013	35344
86.0	23341ca4e4830bee	61952	1625461	8448	32256	25712	0	101011	35344
86.0	23341ca4e4830bee	61952	1625652	8448	32256	25712	0	101021	35344
86.0	23341ca4e4830bee	61952	1625844	8448	32224	25712	0	101017	35264
86.0	23341ca4e4830bee	61952	1626035	8448	32224	25712	0	101013	35264
86.0	23341ca4e4830bee	61952	1626226	8448	32224	25712	0	101019	35264
86.0	23341ca4e4830bee	61952	1626407	8448	32224	25712	0	101017	35264
86.0	23341ca4e4830bee	61952	1626598	8448	32288	25712	0	101019	35024
86.0	23341ca4e4830bee	61952	1626790	8448	32288	25712	0	101021	35024
86.0	23341ca4e4830bee	61952	1626981	8448	32288	25712	0	101009	35024
86.0	23341ca4e4830bee	61952	1627172	8448	32288	25712	0	101007	35296
86.0	23341ca4e4830bee	61952	1627373	8448	32240	25696	0	101019	35296
86.0	23341ca4e4830bee	61952	1627564	8448	32240	25696	0	101015	35296
86.0	23341ca4e4830bee	61952	1627755	8448	32240	25696	0	101015	35296
86.0	23341ca4e4830bee	61952	1627946	8448	32224	25728	0	101025	35184
86.0	23341ca4e4830bee	61952	1628127	8448	32224	25728	0	101009	35184
86.0	23341ca4e4830bee	61952	1628319	8448	32224	25728	0	101013	35184
86.0	23341ca4e4830bee	61952	1628522	8448	32224	25728	0	101015	35184
86.0	23341ca4e4830bee	61952	1628713	8448	32224	25664	0	101019	35152
86.0	23341ca4e4830bee	61952	1628955	8448	32224	25664	0	101019	35152
86.0	23341ca4e4830bee	61952	1629146	8448	32224	25664	0	101021	35152
86.0	23341ca4e4830bee	61952	1629355	8320	32240	25664	0	101007	35072
86.0	23341ca4e4830bee	61952	1629546	8320	32240	25712	0	101013	35072
86.0	23341ca4e4830bee	61952	1629727	8320	32240	25712	0	101019	35072
86.0	23341ca4e4830bee	61952	1629918	8320	32240	25712	0	101011	35072
86.0	23341ca4e4830bee	61952	1630109	8448	32272	25728	0	101019	35136
86.0	23341ca4e4830bee	61952	1630301	8448	32272	25728	0	101019	35136
86.0	23341ca4e4830bee	61952	1630535	8448	32272	25728	0	101013	35136
86.0	23341ca4e4830bee	61952	1630756	8576	32272	25728	0	101013	35328
86.0	23341ca4e4830bee	61968	1630947	8576	32192	25680	0	101019	35328
86.0	23341ca4e4830bee	61968	1631138	8576	32192	25680	0	101013	35328
86.0	23341ca4e4830bee	61968	1631319	8576	32192	25680	0	101021	35328
86.0	23341ca4e4830bee	61952	1631510	8448	32192	25680	0	101017	35056
86.0	23341ca4e4830bee	61952	1631701	8448	32240	25728	0	101013	35056
86.0	23341ca4e4830bee	61952	1631892	8448	32240	25728	0	101017	35056
86.0	23341ca4e4830bee	61952	1632084	8448	32240	25728	0	101017	35056
86.0	23341ca4e4830bee	61952	1632275	8448	32240	25712	0	101019	35264
86.0	23341ca4e4830bee	61952	1632466	8448	32240	25712	0	101013	35264
86.0	23341ca4e4830bee	61952	1632658	8448	32240	25712	0	101013	35264
86.0	23341ca4e4830bee	61952	1632890	8448	32240	25712	0	101007	35264
86.0	23341ca4e4830bee	61952	1633081	8448	32224	25728	0	101017	34992
86.0	23341ca4e4830bee	61952	1633283	8448	32224	25728	0	101013	34992
86.0	23341ca4e4830bee	61952	1633474	8448	32224	25728	0	101019	34992
86.0	23341ca4e4830bee	61952	1633666	8448	32224	25728	0	101025	35008
86.0	23341ca4e4830bee	61952	1633857	8448	32240	25712	0	101013	35008
86.0	23341ca4e4830bee	61952	1634048	8448	32240	25712	0	101019	35008
86.0	23341ca4e4830bee	61952	1634229	8448	32240	25712	0	101013	35008
86.0	23341ca4e4830bee	61952	1634420	8448	32272	25728	0	101007	35008
86.0	23341ca4e4830bee	61952	1634611	8448	32272	25728	0	101017	35008
86.0	23341ca4e4830bee	61952	1634802	8448	32272	25728	0	101017	35008
86.0	23341ca4e4830bee	61952	1634993	8448	32272	25728	0	101019	35008
86.0	23341ca4e4830bee	61952	1635184	8448	32256	25712	0	101007	35280
86.0	23341ca4e4830bee	61952	1635376	8448	32256	25712	0	101017	35280
86.0	23341ca4e4830bee	61952	1635567	8448	32256	25712	0	101017	35280
86.0	23341ca4e4830bee	61952	1635758	8448	32256	25712	0	101013	35280
86.0	23341ca4e4830bee	61952	1635939	8448	32240	25728	0	101019	35040
86.0	23341ca4e4830bee	61952	1636130	8448	32240	25728	0	101007	35040
86.0	23341ca4e4830bee	61952	1636322	8448	32240	25728	0	101019	35040
86.0	23341ca4e4830bee	61952	1636513	8448	32240	25728	0	101019	35040
86.0	23341ca4e4830bee	61968	1636758	8448	32272	25728	0	101013	35136
86.0	23341ca4e4830bee	61968	1636949	8448	32272	25728	0	101013	35136
86.0	23341ca4e4830bee	61968	1637130	8448	32272	25728	0	101021	35136
86.0	23341ca4e4830bee	61952	1637321	8448	32224	25728	0	101013	35264
86.0	23341ca4e4830bee	61952	1637512	8448	32224	25728	0	101019	35264
86.0	23341ca4e4830bee	61952	1637703	8448	32224	25728	0	101019	35264
86.0	23341ca4e4830bee	61952	1637894	8448	32224	25728	0	101025	35264
86.0	23341ca4e4830bee	61952	1638085	8448	32224	25728	0	101021	35200
86.0	23341ca4e4830bee	61952	1638276	8448	32224	25728	0	101019	35200
86.0	23341ca4e4830bee	61952	1638467	8448	32224	25728	0	101021	35200
86.0	23341ca4e4830bee	61952	1638658	8448	32224	25728	0	101019	35200
86.0	23341ca4e4830bee	61952	1638840	8448	32224	25712	0	101017	35216
86.0	23341ca4e4830bee	61952	1639031	8448	32224	25712	0	101019	35216
86.0	23341ca4e4830bee	61952	1639228	8448	32224	25712	0	101019	35216
86.0	23341ca4e4830bee	61952	1639409	8448	32224	25712	0	101007	35216
86.0	23341ca4e4830bee	61984	1639601	8448	32256	25728	0	101017	35024
86.0	23341ca4e4830bee	61984	1639792	8448	32256	25728	0	101007	35024
86.0	23341ca4e4830bee	61984	1639983	8448	32256	25728	0	101017	35024
86.0	23341ca4e4830bee	61984	1640174	8576	32256	25728	0	101007	34960
86.0	23341ca4e4830bee	61984	1640366	8576	32240	25696	0	101013	34960
86.0	23341ca4e4830bee	61984	1640600	8576	32240	25696	0	101013	34960
86.0	23341ca4e4830bee	61984	1640791	8576	32240	25696	0	101013	34960
86.0	23341ca4e4830bee	61984	1640993	8448	32224	25712	0	101019	35248
86.0	23341ca4e4830bee	61984	1641184	8448	32224	25712	1	101027	35248
86.0	23341ca4e4830bee	61984	1641375	8448	32224	25712	1	101013	35248
86.0	23341ca4e4830bee	61984	1641566	8448	32224	25712	1	101017	35248
86.0	23341ca4e4830bee	61984	1641757	8448	32240	25728	1	101019	34960
86.0	23341ca4e4830bee	61984	1641948	8448	32240	25728	1	101019	34960
86.0	23341ca4e4830bee	61984	1642139	8448	32240	25728	1	101013	34960
86.0	23341ca4e4830bee	61984	1642320	8448	32240	25728	1	101015	35280
86.0	23341ca4e4830bee	61952	1642511	8448	32224	25696	1	101019	35280
86.0	23341ca4e4830bee	61952	1642702	8448	32224	25696	1	101013	35280
86.0	23341ca4e4830bee	61952	1642893	8448	32224	25696	1	101019	35280
86.0	23341ca4e4830bee	61952	1643085	8448	32224	25728	0	101017	35056
86.0	23341ca4e4830bee	61952	1643276	8448	32224	25728	0	101013	35056
86.0	23341ca4e4830bee	61952	1643467	8448	32224	25728	0	101013	35056
86.0	23341ca4e4830bee	61952	1643658	8448	32224	25728	0	101003	35056
86.0	23341ca4e4830bee	61952	1643850	8448	32256	25712	0	101019	35088
86.0	23341ca4e4830bee	61952	1644041	8448	32256	25712	0	101015	35088
86.0	23341ca4e4830bee	61952	1644232	8448	32256	25712	0	101015	35088
86.0	23341ca4e4830bee	61952	1644476	8448	32256	25712	0	101019	35088
86.0	23341ca4e4830bee	61952	1644667	8448	32224	25696	0	101011	35280
86.0	23341ca4e4830bee	61952	1644858	8448	32224	25696	0	101021	35280
86.0	23341ca4e4830bee	61952	1645049	8448	32224	25696	0	101015	35280
86.0	23341ca4e4830bee	61936	1645235	8448	32224	25696	0	101011	34976
86.0	23341ca4e4830bee	61936	1645426	8448	32272	25712	0	101021	34976
86.0	23341ca4e4830bee	61936	1645617	8448	32272	25712	0	101017	34976
86.0	23341ca4e4830bee	61936	1645808	8448	32272	25712	0	101011	34976
86.0	23341ca4e4830bee	61952	1645999	8448	32272	25712	0	101017	35312
86.0	23341ca4e4830bee	61952	1646180	8448	32272	25712	0	101017	35312
86.0	23341ca4e4830bee	61952	1646371	8448	32272	25712	0	101013	35312
86.0	23341ca4e4830bee	61952	1646562	8448	32272	25712	0	101017	35312
86.0	23341ca4e4830bee	61952	1646753	8448	32256	25712	0	101021	34992
86.0	23341ca4e4830bee	61952	1646945	8448	32256	25712	0	101021	34992
86.0	23341ca4e4830bee	61952	1647136	8448	32256	25712	0	101015	34992
86.0	23341ca4e4830bee	61952	1647330	8448	32256	25712	0	101017	34992
86.0	23341ca4e4830bee	61952	1647511	8448	32240	25696	0	101011	34960
86.0	23341ca4e4830bee	61952	1647702	8448	32240	25696	0	101011	34960
86.0	23341ca4e4830bee	61952	1647893	8448	32240	25696	0	101011	34960
86.0	23341ca4e4830bee	61952	1648085	8448	32240	25696	0	101021	34960
86.0	23341ca4e4830bee	61952	1648329	8448	32224	25712	0	101011	35248
86.0	23341ca4e4830bee	61952	1648531	8448	32224	25712	0	101009	35248
86.0	23341ca4e4830bee	61952	1648722	8448	32224	25712	0	101015	35248
86.0	23341ca4e4830bee	61952	1648913	8448	32256	25728	0	101021	35104
86.0	23341ca4e4830bee	61952	1649104	8448	32256	25728	0	101011	35104
86.0	23341ca4e4830bee	61952	1649295	8448	32256	25728	0	101017	35104
86.0	23341ca4e4830bee	61952	1649486	8448	32256	25728	0	101015	35104
86.0	23341ca4e4830bee	61952	1649677	8448	32256	25712	0	101017	35056
86.0	23341ca4e4830bee	61952	1649868	8448	32256	25712	0	101007	35056
86.0	23341ca4e4830bee	61952	1650065	8448	32256	25712	0	101011	35056
86.0	23341ca4e4830bee	61952	1650257	8448	32256	25712	0	101023	35056
86.0	23341ca4e4830bee	61952	1650448	8448	32224	25680	0	101023	35280
86.0	23341ca4e4830bee	61952	1650639	8448	32224	25680	0	101017	35280
86.0	23341ca4e4830bee	61952	1650830	8448	32224	25680	0	101017	35280
86.0	23341ca4e4830bee	61952	1651011	8448	32224	25680	0	101021	35072
86.0	23341ca4e4830bee	61952	1651202	8448	32208	25696	0	101017	35072
86.0	23341ca4e4830bee	61952	1651393	8448	32208	25696	0	101021	35072
86.0	23341ca4e4830bee	61952	1651585	8448	32208	25696	0	101011	35072
86.0	23341ca4e4830bee	61952	1651776	8576	32224	25696	0	101011	35264
86.0	23341ca4e4830bee	61952	1651967	8576	32224	25696	0	101017	35264
86.0	23341ca4e4830bee	61952	1652200	8576	32224	25696	0	101017	35264
86.0	23341ca4e4830bee	61952	1652391	8448	32224	25696	0	101013	35264
86.0	23341ca4e4830bee	61952	1652572	8448	32240	25728	0	101013	34976
86.0	23341ca4e4830bee	61952	1652774	8448	32240	25728	0	101023	34976
86.0	23341ca4e4830bee	61952	1652965	8448	32240	25728	0	101011	34976
86.0	23341ca4e4830bee	61952	1653156	8448	32240	25728	0	101011	35024
86.0	23341ca4e4830bee	62160	1653348	8448	32224	25712	1	101017	35024
85.82	23341ca4e4830bee	62160	1653539	8448	32224	25712	1	101017	35024
86.0	23341ca4e4830bee	62160	1653730	8448	32224	25712	1	101013	35024
85.82	23341ca4e4830bee	64400	1653912	8448	32240	25712	0	101017	35280
85.82	23341ca4e4830bee	64400	1654103	8448	32240	25728	1	101013	35280
85.82	23341ca4e4830bee	64400	1654294	8448	32240	25728	1	101019	35280
85.82	23341ca4e4830bee	64400	1654485	8448	32240	25728	0	101019	35280
85.82	23341ca4e4830bee	63536	1654676	8448	30896	25760	0	101013	35168
85.82	23341ca4e4830bee	63536	1654867	8448	30896	25760	1	101013	35168
85.82	23341ca4e4830bee	63536	1655059	8448	30896	25760	1	101013	35168
85.82	23341ca4e4830bee	63536	1655250	8448	30896	25760	1	101019	35168
85.82	23341ca4e4830bee	63872	1655441	8448	31504	25680	1	101017	35168
85.82	23341ca4e4830bee	63872	1655632	8448	31504	25680	1	101009	35168
85.82	23341ca4e4830bee	63872	1655824	8448	31504	25680	1	101015	35168
85.82	23341ca4e4830bee	63872	1656038	8448	31504	25680	1	101013	34960
85.82	23341ca4e4830bee	63984	1656229	8448	30944	25648	1	101017	34960
85.82	23341ca4e4830bee	63984	1656420	8448	30944	25648	1	101013	34960
85.82	23341ca4e4830bee	63984	1656611	8448	30944	25648	1	101011	34960
85.82	23341ca4e4830bee	64464	1656802	8448	30864	25648	1	101005	35328
85.82	23341ca4e4830bee	64464	1656993	8448	30864	25776	1	101017	35328
85.82	23341ca4e4830bee	64464	1657184	8448	30864	25776	1	101015	35328
85.82	23341ca4e4830bee	64464	1657382	8448	30864	25776	1	101013	35328
85.82	23341ca4e4830bee	64800	1657573	8448	30816	25824	1	101017	35232
85.82	23341ca4e4830bee	64800	1657764	8448	30816	25824	1	101013	35232
85.82	23341ca4e4830bee	64800	1657955	8448	30816	25824	1	101017	35232
85.82	23341ca4e4830bee	64800	1658146	8448	30816	25824	1	101013	35232
85.82	23341ca4e4830bee	64768	1658338	8448	30816	25744	1	101013	35216
85.82	23341ca4e4830bee	64768	1658539	8448	30816	25744	1	101017	35216
85.82	23341ca4e4830bee	64768	1658730	8448	30816	25744	0	101017	35216
85.82	23341ca4e4830bee	64768	1658921	8448	30816	25744	1	101015	35216
85.82	23341ca4e4830bee	64768	1659112	8448	30832	25728	1	101021	35216
85.82	23341ca4e4830bee	64768	1659304	8448	30832	25728	1	101011	35216
85.82	23341ca4e4830bee	64768	1659495	8448	30832	25728	1	101009	35216
85.82	23341ca4e4830bee	64784	1659686	8448	30832	25728	1	101015	35232
85.82	23341ca4e4830bee	64784	1659925	8448	30800	25808	1	101015	35232
85.82	23341ca4e4830bee	64784	1660116	8448	30800	25808	1	101021	35232
85.82	23341ca4e4830bee	64784	1660307	8448	30800	25808	1	101025	35232
85.82	23341ca4e4830bee	64784	1660498	8448	30784	25760	1	101019	35024
85.82	23341ca4e4830bee	64784	1660689	8448	30784	25760	1	101013	35024
85.82	23341ca4e4830bee	64784	1660880	8448	30784	25760	1	101019	35024
85.82	23341ca4e4830bee	64784	1661071	8448	30784	25760	0	101021	35024
85.82	23341ca4e4830bee	64768	1661252	8448	30768	25776	0	101025	35264
85.82	23341ca4e4830bee	64768	1661443	8448	30768	25776	0	101019	35264
86.0	23341ca4e4830bee	64768	1661634	8448	30768	25776	0	101023	35264
85.82	23341ca4e4830bee	64768	1661826	8448	30768	25776	0	101011	35168
85.82	23341ca4e4830bee	64752	1662017	8448	30816	25744	1	101015	35168
86.0	23341ca4e4830bee	64752	1662208	8448	30816	25744	1	101019	35168
86.0	23341ca4e4830bee	64752	1662399	8448	30816	25744	1	101019	35168
85.82	23341ca4e4830bee	64784	1662590	8448	30704	25792	1	101007	35216
85.82	23341ca4e4830bee	64784	1662781	8448	30704	25792	1	101013	35216
86.0	23341ca4e4830bee	64784	1662963	8448	30704	25792	0	101019	35216
85.82	23341ca4e4830bee	64784	1663154	8448	30704	25792	0	101013	35216
86.0	23341ca4e4830bee	64784	1663346	8448	30832	25792	0	101009	35296
85.82	23341ca4e4830bee	64784	1663537	8448	30832	25792	0	101013	35296
86.0	23341ca4e4830bee	64784	1663779	8448	30832	25792	0	101011	35296
86.0	23341ca4e4830bee	64784	1663970	8448	30832	25792	0	101011	35296
86.0	23341ca4e4830bee	64800	1664161	8448	30752	25776	0	101019	35040
86.0	23341ca4e4830bee	64800	1664353	8448	30752	25776	0	101017	35040
86.0	23341ca4e4830bee	64800	1664544	8448	30752	25776	0	101017	35040
86.0	23341ca4e4830bee	64800	1664735	8576	30752	25776	1	101009	34976
86.0	23341ca4e4830bee	64800	1664926	8576	30768	25776	1	101011	34976
86.0	23341ca4e4830bee	64800	1665117	8576	30768	25776	0	101019	34976
86.0	23341ca4e4830bee	64800	1665328	8576	30768	25776	0	101015	34976
86.0	23341ca4e4830bee	64816	1665519	8448	30784	25760	0	101005	35264
86.0	23341ca4e4830bee	64816	1665710	8448	30784	25760	0	101015	35264
86.0	23341ca4e4830bee	64816	1665901	8448	30784	25760	0	101015	35264
86.0	23341ca4e4830bee	64816	1666093	8448	30784	25760	0	101019	35264
86.0	23341ca4e4830bee	64800	1666284	8448	30816	25776	0	101021	35152
86.0	23341ca4e4830bee	64800	1666475	8448	30816	25776	0	101021	35152
86.0	23341ca4e4830bee	64800	1666666	8448	30816	25776	0	101013	35152
86.0	23341ca4e4830bee	64800	1666857	8448	30816	25776	0	101013	35152
86.0	23341ca4e4830bee	64800	1667049	8448	30752	25792	0	101015	35280
86.0	23341ca4e4830bee	64800	1667247	8448	30752	25792	0	101017	35280
86.0	23341ca4e4830bee	64800	1667438	8448	30752	25792	0	101017	35280
86.0	23341ca4e4830bee	64816	1667685	8448	30752	25776	0	101009	35200
86.0	23341ca4e4830bee	64816	1667876	8448	30752	25776	0	101019	35200
86.0	23341ca4e4830bee	64816	1668067	8448	30752	25776	0	101013	35200
86.0	23341ca4e4830bee	64816	1668258	8448	30752	25776	0	101019	35200
86.0	23341ca4e4830bee	64816	1668449	8448	30736	25776	0	101025	34976
86.0	23341ca4e4830bee	64816	1668640	8448	30736	25776	0	101021	34976
86.0	23341ca4e4830bee	64816	1668831	8448	30736	25776	0	101019	34976
86.0	23341ca4e4830bee	64816	1669022	8448	30736	25776	0	101021	34976
86.0	23341ca4e4830bee	64816	1669203	8448	30752	25824	0	101007	35184
86.0	23341ca4e4830bee	64816	1669397	8448	30752	25824	0	101017	35184
86.0	23341ca4e4830bee	64816	1669588	8448	30752	25824	0	101021	35184
86.0	23341ca4e4830bee	64816	1669780	8448	30752	25824	0	101011	35200
86.0	23341ca4e4830bee	64816	1669971	8448	30736	25744	0	101019	35200
86.0	23341ca4e4830bee	64816	1670162	8448	30736	25744	0	101017	35200
86.0	23341ca4e4830bee	64816	1670362	8448	30736	25744	0	101019	35200
86.0	23341ca4e4830bee	64816	1670543	8448	30768	25792	0	101017	35200
86.0	23341ca4e4830bee	64816	1670735	8448	30768	25792	0	101011	35200
86.0	23341ca4e4830bee	64816	1670926	8448	30768	25792	0	101017	35200
86.0	23341ca4e4830bee	64816	1671131	8448	30768	25792	0	101019	35200
86.0	23341ca4e4830bee	64816	1671322	8576	30752	25808	0	101013	35136
86.0	23341ca4e4830bee	64816	1671555	8576	30752	25808	0	101007	35136
86.0	23341ca4e4830bee	64816	1671746	8576	30752	25808	0	101019	35136
86.0	23341ca4e4830bee	64816	1671937	8448	30752	25808	0	101013	35136
86.0	23341ca4e4830bee	64832	1672128	8448	30720	25760	0	101013	35136
86.0	23341ca4e4830bee	64832	1672319	8448	30720	25760	0	101011	35136
86.0	23341ca4e4830bee	64832	1672510	8448	30720	25760	0	101011	35136
86.0	23341ca4e4830bee	64816	1672701	8448	30720	25760	0	101007	35200
86.0	23341ca4e4830bee	64816	1672893	8448	30720	25776	0	101019	35200
86.0	23341ca4e4830bee	64816	1673074	8448	30720	25776	0	101013	35200
86.0	23341ca4e4830bee	64816	1673277	8448	30720	25776	0	101015	35200
86.0	23341ca4e4830bee	64832	1673468	8448	30752	25792	0	101021	35040
86.0	23341ca4e4830bee	64832	1673659	8448	30752	25792	0	101017	35040
86.0	23341ca4e4830bee	64832	1673851	8448	30752	25792	0	101011	35040
86.0	23341ca4e4830bee	64832	1674042	8448	30752	25792	0	101027	35040
86.0	23341ca4e4830bee	64832	1674233	8576	30704	25808	0	101021	35232
86.0	23341ca4e4830bee	64832	1674414	8576	30704	25808	0	101021	35232
86.0	23341ca4e4830bee	64832	1674606	8576	30704	25808	0	101017	35232
86.0	23341ca4e4830bee	64832	1674797	8576	30704	25808	0	101015	35232
86.0	23341ca4e4830bee	64832	1674988	8576	30752	25776	0	101011	35312
86.0	23341ca4e4830bee	64832	1675179	8576	30752	25776	0	101021	35312
86.0	23341ca4e4830bee	64832	1675423	8576	30752	25776	0	101015	35312
86.0	23341ca4e4830bee	64832	1675605	8448	30688	25792	0	101011	35008
86.0	23341ca4e4830bee	64832	1675796	8448	30688	25792	0	101011	35008
86.0	23341ca4e4830bee	64832	1675996	8448	30688	25792	0	101021	35008
86.0	23341ca4e4830bee	64832	1676187	8448	30688	25792	0	101007	35008
86.0	23341ca4e4830bee	64832	1676378	8576	30736	25824	0	101011	35248
86.0	23341ca4e4830bee	64832	1676569	8576	30736	25824	0	101015	35248
86.0	23341ca4e4830bee	64832	1676769	8576	30736	25824	0	101023	35248
86.0	23341ca4e4830bee	64832	1676960	8576	30736	25824	0	101015	35248
86.0	23341ca4e4830bee	64832	1677151	8576	30704	25792	0	101015	35024
86.0	23341ca4e4830bee	64832	1677342	8576	30704	25792	0	101027	35024
86.0	23341ca4e4830bee	64832	1677534	8576	30704	25792	0	101015	35024
86.0	23341ca4e4830bee	64832	1677715	8448	30704	25792	0	101005	35200
86.0	23341ca4e4830bee	64848	1677906	8448	30720	25760	0	101009	35200
86.0	23341ca4e4830bee	64848	1678097	8448	30720	25760	0	101023	35200
86.0	23341ca4e4830bee	64848	1678289	8448	30720	25760	0	101029	35200
86.0	23341ca4e4830bee	64832	1678480	8448	30720	25760	0	101027	35072
86.0	23341ca4e4830bee	64832	1678671	8448	30720	25792	0	101013	35072
86.0	23341ca4e4830bee	64832	1678862	8448	30720	25792	0	101015	35072
86.0	23341ca4e4830bee	64832	1679053	8448	30720	25792	0	101019	35072
86.0	23341ca4e4830bee	64848	1679284	8448	30704	25792	0	101019	35152
86.0	23341ca4e4830bee	64848	1679475	8448	30704	25792	0	101011	35152
86.0	23341ca4e4830bee	64848	1679667	8448	30704	25792	0	101013	35152
86.0	23341ca4e4830bee	64848	1679858	8448	30704	25792	0	101011	35152
86.0	23341ca4e4830bee	64832	1680049	8448	30704	25808	0	101009	35088
86.0	23341ca4e4830bee	64832	1680240	8448	30704	25808	0	101019	35088
86.0	23341ca4e4830bee	64832	1680431	8448	30704	25808	0	101013	35088
86.0	23341ca4e4830bee	64848	1680622	8448	30704	25808	0	101029	34992
86.0	23341ca4e4830bee	64848	1680813	8448	30688	25856	0	101019	34992
86.0	23341ca4e4830bee	64848	1681004	8448	30688	25856	0	101007	34992
86.0	23341ca4e4830bee	64848	1681185	8448	30688	25856	1	101011	34992
86.0	23341ca4e4830bee	64576	1681376	8576	30640	25776	1	101019	35072
86.0	23341ca4e4830bee	64576	1681567	8576	30640	25776	1	101017	35072
86.0	23341ca4e4830bee	64576	1681759	8576	30640	25776	1	101017	35072
86.0	23341ca4e4830bee	64576	1681950	8576	30640	25776	1	101013	35072
86.0	23341ca4e4830bee	64320	1682141	8576	30624	25808	0	101011	35312
86.0	23341ca4e4830bee	64320	1682336	8576	30624	25808	1	101011	35312
86.0	23341ca4e4830bee	64320	1682527	8576	30624	25808	1	101009	35312
86.0	23341ca4e4830bee	64320	1682719	8576	30624	25808	1	101017	35312
86.18	23341ca4e4830bee	64256	1682910	8448	30656	25792	1	101021	35264
86.18	23341ca4e4830bee	64256	1683142	8448	30656	25792	1	101019	35264
86.0	23341ca4e4830bee	64256	1683333	8448	30656	25792	1	101017	35264
86.0	23341ca4e4830bee	64256	1683525	8576	30656	25792	0	101011	34960
86.0	23341ca4e4830bee	64256	1683706	8576	30704	25824	1	101013	34960
86.18	23341ca4e4830bee	64256	1683897	8576	30704	25824	1	101015	34960
86.18	23341ca4e4830bee	64256	1684088	8576	30704	25824	0	101009	34960
86.0	23341ca4e4830bee	64272	1684279	8448	30640	25776	1	101005	35008
86.0	23341ca4e4830bee	64272	1684470	8448	30640	25776	1	101017	35008
86.18	23341ca4e4830bee	64272	1684661	8448	30640	25776	1	101019	35008
86.0	23341ca4e4830bee	64272	1684853	8448	30640	25776	0	101005	35008
86.18	23341ca4e4830bee	64272	1685044	8576	30656	25792	0	101013	35296
86.18	23341ca4e4830bee	64272	1685235	8576	30656	25792	0	101013	35296
86.18	23341ca4e4830bee	64272	1685426	8576	30656	25792	0	101019	35296
86.18	23341ca4e4830bee	64272	1685617	8576	30656	25792	0	101007	35296
86.18	23341ca4e4830bee	64272	1685808	8576	30656	25808	0	101015	35232
86.18	23341ca4e4830bee	64272	1685999	8576	30656	25808	0	101019	35232
86.18	23341ca4e4830bee	64272	1686191	8576	30656	25808	0	101019	35232
86.18	23341ca4e4830bee	64272	1686382	8576	30656	25808	1	101019	35296
86.18	23341ca4e4830bee	64288	1686573	8576	30672	25792	1	101015	35296
86.18	23341ca4e4830bee	64288	1686764	8576	30672	25792	1	101007	35296
86.18	23341ca4e4830bee	64288	1686990	8576	30672	25792	1	101013	35296
86.18	23341ca4e4830bee	64288	1687181	8576	30688	25792	1	101009	34960
86.18	23341ca4e4830bee	64288	1687372	8576	30688	25792	0	101007	34960
86.18	23341ca4e4830bee	64288	1687573	8576	30688	25792	1	101019	34960
86.18	23341ca4e4830bee	64288	1687764	8576	30688	25792	1	101011	34960
86.18	23341ca4e4830bee	64256	1687955	8576	30688	25824	1	101007	35040
86.18	23341ca4e4830bee	64256	1688146	8576	30688	25824	1	101007	35040
86.18	23341ca4e4830bee	64256	1688350	8576	30688	25824	1	101011	35040
86.18	23341ca4e4830bee	64256	1688546	8576	30688	25824	1	101011	35040
86.18	23341ca4e4830bee	64256	1688737	8576	30560	25952	1	101017	35248
86.18	23341ca4e4830bee	64256	1688928	8576	30560	25952	1	101007	35248
86.18	23341ca4e4830bee	64256	1689119	8576	30560	25952	0	101011	35248
86.18	23341ca4e4830bee	64432	1689311	8576	30448	25952	1	101005	35280
86.18	23341ca4e4830bee	64432	1689502	8576	30448	25488	1	101015	35280
86.18	23341ca4e4830bee	64432	1689693	8576	30448	25488	1	101011	35280
86.18	23341ca4e4830bee	64432	1689884	8576	30448	25488	1	101007	35280
86.18	23341ca4e4830bee	64640	1690075	8576	30704	25824	1	101017	35280
86.18	23341ca4e4830bee	64640	1690256	8576	30704	25824	1	101011	35280
86.18	23341ca4e4830bee	64640	1690448	8576	30704	25824	1	101011	35280
86.18	23341ca4e4830bee	64640	1690639	8576	30704	25824	1	101017	35280
86.18	23341ca4e4830bee	64592	1690875	8576	30672	25808	1	101009	35328
86.18	23341ca4e4830bee	64592	1691056	8576	30672	25808	1	101015	35328
86.18	23341ca4e4830bee	64592	1691247	8576	30672	25808	1	101021	35328
86.18	23341ca4e4830bee	64592	1691438	8576	30672	25808	1	101011	35328
86.18	23341ca4e4830bee	64560	1691629	8576	30688	25808	1	101021	35120
86.18	23341ca4e4830bee	64560	1691820	8576	30688	25808	1	101023	35120
86.18	23341ca4e4830bee	64560	1692011	8576	30688	25808	1	101005	35120
86.18	23341ca4e4830bee	64560	1692203	8448	30672	25808	1	101015	35216
86.18	23341ca4e4830bee	64560	1692402	8448	30672	25856	0	101013	35216
86.18	23341ca4e4830bee	64560	1692593	8448	30672	25856	1	101011	35216
86.18	23341ca4e4830bee	64560	1692784	8448	30672	25856	1	101015	35216
86.18	23341ca4e4830bee	64544	1692975	8576	30688	25792	0	101015	34976
86.18	23341ca4e4830bee	64544	1693156	8576	30688	25792	1	101015	34976
86.18	23341ca4e4830bee	64544	1693353	8576	30688	25792	1	101019	34976
86.18	23341ca4e4830bee	64544	1693545	8576	30688	25792	1	101015	34976
86.18	23341ca4e4830bee	64544	1693736	8576	30688	25792	1	101007	35280
86.18	23341ca4e4830bee	64544	1693927	8576	30688	25792	1	101011	35280
86.18	23341ca4e4830bee	64544	1694118	8576	30688	25792	1	101015	35280
86.18	23341ca4e4830bee	64544	1694309	8576	30688	25792	0	101007	35280
86.18	23341ca4e4830bee	64560	1694501	8576	30688	25808	0	101013	35056
86.18	23341ca4e4830bee	64560	1694742	8576	30688	25808	0	101013	35056
86.18	23341ca4e4830bee	64560	1694933	8576	30688	25808	0	101011	35056
86.18	23341ca4e4830bee	64560	1695124	8576	30704	25808	0	101017	35280
86.18	23341ca4e4830bee	64560	1695335	8576	30704	25808	0	101017	35280
86.18	23341ca4e4830bee	64560	1695526	8576	30704	25808	0	101007	35280
86.18	23341ca4e4830bee	64560	1695707	8576	30704	25808	0	101005	35280
86.18	23341ca4e4830bee	64544	1695898	8576	30704	25824	1	101013	35056
86.18	23341ca4e4830bee	64544	1696090	8576	30704	25824	1	101011	35056
86.18	23341ca4e4830bee	64544	1696281	8576	30704	25824	1	101011	35056
86.18	23341ca4e4830bee	64544	1696472	8576	30704	25824	1	101007	35056
86.18	23341ca4e4830bee	64432	1696663	8576	30704	25792	1	101017	35312
86.18	23341ca4e4830bee	64432	1696854	8576	30704	25792	0	101005	35312
86.18	23341ca4e4830bee	64432	1697046	8576	30704	25792	1	101007	35312
86.18	23341ca4e4830bee	64432	1697227	8576	30704	25792	1	101009	35200
86.18	23341ca4e4830bee	64432	1697418	8576	30672	25824	1	101013	35200
86.18	23341ca4e4830bee	64432	1697609	8576	30672	25824	1	101017	35200
86.18	23341ca4e4830bee	64432	1697800	8576	30672	25824	1	101017	35200
86.18	23341ca4e4830bee	64432	1697991	8576	30704	25824	1	101011	35024
86.18	23341ca4e4830bee	64432	1698183	8576	30704	25824	1	101007	35024
86.18	23341ca4e4830bee	64432	1698374	8576	30704	25824	0	101021	35024
86.18	23341ca4e4830bee	64432	1698606	8576	30704	25824	0	101007	35024
86.18	23341ca4e4830bee	64432	1698787	8576	30640	25792	0	100999	35008
86.18	23341ca4e4830bee	64432	1698978	8576	30640	25792	0	101011	35008
86.18	23341ca4e4830bee	64432	1699169	8576	30640	25792	0	101007	35008
86.18	23341ca4e4830bee	64432	1699360	8576	30640	25792	0	101011	35008
86.18	23341ca4e4830bee	64416	1699551	8576	30688	25808	0	101015	35216
86.18	23341ca4e4830bee	64416	1699742	8576	30688	25808	0	101017	35216
86.18	23341ca4e4830bee	64416	1699933	8576	30688	25808	1	101013	35216
86.18	23341ca4e4830bee	64464	1700125	8448	30688	25808	1	101011	35024
86.18	23341ca4e4830bee	64464	1700316	8448	30704	25760	1	101011	35024
86.18	23341ca4e4830bee	64464	1700507	8448	30704	25760	1	101015	35024
86.18	23341ca4e4830bee	64464	1700688	8448	30704	25760	1	101017	35024
86.18	23341ca4e4830bee	64480	1700879	8576	30624	25760	0	101013	35216
86.18	23341ca4e4830bee	64480	1701070	8576	30624	25792	0	101011	35216
86.18	23341ca4e4830bee	64480	1701261	8576	30624	25792	0	101017	35216
86.18	23341ca4e4830bee	64480	1701453	8576	30624	25792	0	101021	35216
86.18	23341ca4e4830bee	64496	1701644	8448	30704	25776	0	101005	35088
86.18	23341ca4e4830bee	64496	1701835	8448	30704	25776	0	101015	35088
86.18	23341ca4e4830bee	64496	1702026	8448	30704	25776	0	101009	35088
86.18	23341ca4e4830bee	64496	1702207	8448	30704	25776	0	101011	35088
86.18	23341ca4e4830bee	64512	1702451	8576	30688	25808	0	101015	35104
86.18	23341ca4e4830bee	64512	1702642	8576	30688	25808	0	101007	35104
86.18	23341ca4e4830bee	64512	1702833	8576	30688	25808	0	101015	35104
86.18	23341ca4e4830bee	64512	1703024	8576	30688	25808	0	101017	35008
86.18	23341ca4e4830bee	64512	1703215	8576	30656	25792	0	101015	35008
86.18	23341ca4e4830bee	64512	1703406	8576	30656	25792	0	101011	35008
86.18	23341ca4e4830bee	64512	1703597	8576	30656	25792	0	101011	35008
86.18	23341ca4e4830bee	64496	1703788	8448	30672	25792	0	101017	35168
86.18	23341ca4e4830bee	64496	1703980	8448	30672	25792	0	101011	35168
86.18	23341ca4e4830bee	64496	1704171	8448	30672	25792	0	101009	35168
86.18	23341ca4e4830bee	64496	1704362	8448	30672	25792	0	101007	35168
86.18	23341ca4e4830bee	64480	1704553	8576	30688	25792	0	101015	35280
86.18	23341ca4e4830bee	64480	1704757	8576	30688	25792	0	101015	35280
86.18	23341ca4e4830bee	64480	1704938	8576	30688	25792	0	101017	35280
86.18	23341ca4e4830bee	64480	1705130	8576	30688	25792	1	101005	35280
86.18	23341ca4e4830bee	64432	1705321	8448	31904	25584	1	101017	35040
86.18	23341ca4e4830bee	64432	1705512	8448	31904	25584	1	101011	35040
86.18	23341ca4e4830bee	64432	1705703	8448	31904	25584	1	101017	35040
86.18	23341ca4e4830bee	64432	1705894	8448	31904	25584	1	101011	35312
86.18	23341ca4e4830bee	64384	1706086	8448	30448	25792	1	101007	35312
86.18	23341ca4e4830bee	64384	1706308	8448	30448	25792	1	101015	35312
86.18	23341ca4e4830bee	64384	1706489	8448	30448	25792	1	101025	35312
86.18	23341ca4e4830bee	64160	1706680	8576	32336	25568	1	101021	35200
86.18	23341ca4e4830bee	64160	1706871	8576	32336	25568	0	101013	35200
86.0	23341ca4e4830bee	64160	1707062	8576	32336	25568	1	101017	35200
86.18	23341ca4e4830bee	64160	1707253	8576	32336	25568	1	101019	35200
86.0	23341ca4e4830bee	62544	1707444	8576	32368	25536	0	101011	35136
86.0	23341ca4e4830bee	62544	1707635	8576	32368	25536	1	101009	35136
86.18	23341ca4e4830bee	62544	1707826	8576	32368	25536	1	101009	35136
86.18	23341ca4e4830bee	62544	1708017	8576	32368	25536	1	101021	35136
86.18	23341ca4e4830bee	61984	1708198	8448	32384	25568	1	101015	35312
86.18	23341ca4e4830bee	61984	1708390	8448	32384	25568	0	101015	35312
86.18	23341ca4e4830bee	61984	1708581	8448	32384	25568	1	101013	35312
86.0	23341ca4e4830bee	61984	1708772	8448	32384	25568	1	101011	35312
86.0	23341ca4e4830bee	61952	1708963	8448	32352	25520	1	101009	35280
86.18	23341ca4e4830bee	61952	1709154	8448	32352	25520	1	101009	35280
86.18	23341ca4e4830bee	61952	1709358	8448	32352	25520	1	101013	35280
86.18	23341ca4e4830bee	61936	1709539	8448	32416	25520	1	101009	34992
86.18	23341ca4e4830bee	61936	1709730	8448	32416	25552	0	101021	34992
86.18	23341ca4e4830bee	61936	1709921	8448	32416	25552	0	101015	34992
86.18	23341ca4e4830bee	61936	1710164	8448	32416	25552	0	101013	34992
86.18	23341ca4e4830bee	61936	1710379	8448	32416	25552	0	101019	35104
86.18	23341ca4e4830bee	61936	1710570	8448	32416	25552	0	101015	35104
86.18	23341ca4e4830bee	61936	1710761	8448	32416	25552	0	101013	35104
86.18	23341ca4e4830bee	61936	1710952	8448	32416	25552	0	101013	35184
86.18	23341ca4e4830bee	61936	1711143	8448	32368	25552	0	101019	35184
86.18	23341ca4e4830bee	61936	1711334	8448	32368	25552	0	101019	35184
86.18	23341ca4e4830bee	61936	1711525	8448	32368	25552	0	101015	35184
86.18	23341ca4e4830bee	61920	1711716	8576	32400	25552	0	101009	35024
86.18	23341ca4e4830bee	61920	1711907	8576	32400	25552	0	101009	35024
86.18	23341ca4e4830bee	61920	1712099	8576	32400	25552	0	101007	35024
86.18	23341ca4e4830bee	61920	1712290	8576	32400	25552	0	101013	35024
86.18	23341ca4e4830bee	61920	1712493	8576	32384	25552	0	101017	35120
86.18	23341ca4e4830bee	61920	1712684	8576	32384	25552	0	101013	35120
86.18	23341ca4e4830bee	61920	1712875	8576	32384	25552	0	101017	35120
86.18	23341ca4e4830bee	61920	1713066	8576	32384	25552	0	101013	35120
86.18	23341ca4e4830bee	61920	1713258	8576	32400	25520	0	101015	35200
86.18	23341ca4e4830bee	61920	1713439	8576	32400	25520	0	101013	35200
86.18	23341ca4e4830bee	61920	1713630	8576	32400	25520	0	101017	35200
86.18	23341ca4e4830bee	61920	1713821	8448	32400	25520	0	101013	35200
86.18	23341ca4e4830bee	61920	1714055	8448	32400	25584	0	101013	35104
86.18	23341ca4e4830bee	61920	1714246	8448	32400	25584	0	101019	35104
86.18	23341ca4e4830bee	61920	1714437	8448	32400	25584	0	101007	35104
86.18	23341ca4e4830bee	61920	1714628	8448	32432	25584	0	101013	35024
86.18	23341ca4e4830bee	61920	1714819	8448	32432	25584	0	101015	35024
86.18	23341ca4e4830bee	61920	1715010	8448	32432	25584	0	101017	35024
86.18	23341ca4e4830bee	61920	1715201	8448	32432	25584	0	101013	35024
86.18	23341ca4e4830bee	61920	1715392	8448	32384	25568	0	101001	35104
86.18	23341ca4e4830bee	61920	1715583	8448	32384	25568	0	101013	35104
86.18	23341ca4e4830bee	61920	1715790	8448	32384	25568	0	101019	35104
86.18	23341ca4e4830bee	61920	1715981	8448	32384	25568	0	101013	35104
86.18	23341ca4e4830bee	61920	1716172	8448	32368	25568	0	101011	35136
86.18	23341ca4e4830bee	61920	1716369	8448	32368	25568	0	101011	35136
86.18	23341ca4e4830bee	61920	1716561	8448	32368	25568	0	101011	35136
86.18	23341ca4e4830bee	61920	1716752	8576	32368	25568	0	101013	34960
86.18	23341ca4e4830bee	61920	1716943	8576	32368	25552	0	101019	34960
86.18	23341ca4e4830bee	61920	1717134	8576	32368	25552	0	101013	34960
86.18	23341ca4e4830bee	61920	1717325	8576	32368	25552	0	101007	34960
86.18	23341ca4e4830bee	61904	1717517	8448	32400	25552	0	101011	35136
86.18	23341ca4e4830bee	61904	1717708	8448	32400	25552	0	101013	35136
86.18	23341ca4e4830bee	61904	1717940	8448	32400	25552	0	101007	35136
86.18	23341ca4e4830bee	61904	1718131	8448	32400	25552	0	101007	35136
86.18	23341ca4e4830bee	61920	1718322	8448	32416	25584	0	101013	34944
86.18	23341ca4e4830bee	61920	1718521	8448	32416	25584	0	101013	34944
86.18	23341ca4e4830bee	61920	1718712	8448	32416	25584	0	101013	34944
86.18	23341ca4e4830bee	61920	1718903	8448	32416	25584	0	101013	35312
86.18	23341ca4e4830bee	61904	1719094	8448	32416	25552	0	101019	35312
86.18	23341ca4e4830bee	61904	1719285	8448	32416	25552	0	101019	35312
86.18	23341ca4e4830bee	61904	1719477	8448	32416	25552	0	101011	35312
86.18	23341ca4e4830bee	61904	1719668	8448	32384	25520	0	101013	35312
86.18	23341ca4e4830bee	61904	1719859	8448	32384	25520	0	101013	35312
86.18	23341ca4e4830bee	61904	1720040	8448	32384	25520	0	101013	35312
86.18	23341ca4e4830bee	61904	1720232	8448	32384	25520	0	101013	35312
86.18	23341ca4e4830bee	61904	1720423	8576	32416	25552	0	101019	35248
86.18	23341ca4e4830bee	61904	1720614	8576	32416	25552	0	101013	35248
86.18	23341ca4e4830bee	61904	1720805	8576	32416	25552	0	101013	35248
86.18	23341ca4e4830bee	61904	1720996	8576	32416	25552	0	101015	35248
86.18	23341ca4e4830bee	61920	1721187	8448	32400	25536	0	101019	35312
86.18	23341ca4e4830bee	61920	1721379	8448	32400	25536	0	101017	35312
86.18	23341ca4e4830bee	61920	1721560	8448	32400	25536	0	101009	35312
86.18	23341ca4e4830bee	61904	1721806	8448	32400	25536	0	101013	34976
86.18	23341ca4e4830bee	61904	1721997	8448	32448	25568	0	101019	34976
86.18	23341ca4e4830bee	61904	1722188	8448	32448	25568	0	101019	34976
86.18	23341ca4e4830bee	61904	1722391	8448	32448	25568	0	101013	34976
86.18	23341ca4e4830bee	61904	1722582	8448	32448	25536	0	101013	35072
86.18	23341ca4e4830bee	61904	1722773	8448	32448	25536	0	101013	35072
86.18	23341ca4e4830bee	61904	1722964	8448	32448	25536	0	101013	35072
86.18	23341ca4e4830bee	61904	1723155	8448	32448	25536	0	101019	35072
86.18	23341ca4e4830bee	61904	1723346	8448	32416	25552	0	101023	35296
86.18	23341ca4e4830bee	61904	1723537	8448	32416	25552	0	101007	35296
86.18	23341ca4e4830bee	61904	1723728	8448	32416	25552	0	101009	35296
86.18	23341ca4e4830bee	61904	1723919	8448	32416	25552	0	101013	35296
86.18	23341ca4e4830bee	61904	1724101	8448	32400	25552	0	101013	35088
86.0	23341ca4e4830bee	61904	1724292	8448	32400	25552	0	101005	35088
86.18	23341ca4e4830bee	61904	1724492	8448	32400	25552	0	101013	35088
86.18	23341ca4e4830bee	61904	1724684	8448	32400	25552	0	101009	35328
86.18	23341ca4e4830bee	61904	1724875	8448	32416	25536	0	101015	35328
86.18	23341ca4e4830bee	61904	1725066	8448	32416	25536	0	101015	35328
86.18	23341ca4e4830bee	61904	1725266	8448	32416	25536	0	101013	35328
86.0	23341ca4e4830bee	61904	1725457	8448	32384	25568	0	101005	34960
86.18	23341ca4e4830bee	61904	1725689	8448	32384	25568	0	101021	34960
86.18	23341ca4e4830bee	61904	1725880	8448	32384	25568	0	101015	34960
86.18	23341ca4e4830bee	61904	1726061	8448	32384	25568	0	101015	34960
86.18	23341ca4e4830bee	61904	1726253	8576	32416	25568	0	101025	34960
86.18	23341ca4e4830bee	61904	1726444	8576	32416	25568	0	101025	34960
86.18	23341ca4e4830bee	61904	1726635	8576	32416	25568	0	101009	34960
86.18	23341ca4e4830bee	61904	1726826	8448	32416	25568	0	101003	34960
86.18	23341ca4e4830bee	61904	1727017	8448	32384	25520	0	101003	35232
86.18	23341ca4e4830bee	61904	1727208	8448	32384	25520	0	101019	35232
86.18	23341ca4e4830bee	61904	1727399	8448	32384	25520	0	101015	35232
86.0	23341ca4e4830bee	61904	1727598	8576	32384	25520	0	101005	35360
86.18	23341ca4e4830bee	61904	1727789	8576	32400	25552	0	101013	35360
86.18	23341ca4e4830bee	61904	1727980	8576	32400	25552	0	101015	35360
86.18	23341ca4e4830bee	61904	1728162	8576	32400	25552	0	101019	35360
86.18	23341ca4e4830bee	61904	1728353	8448	32384	25536	0	101021	35344
86.0	23341ca4e4830bee	61904	1728545	8448	32384	25536	0	101009	35344
86.18	23341ca4e4830bee	61904	1728736	8448	32384	25536	0	101009	35344
86.18	23341ca4e4830bee	61904	1728927	8448	32384	25536	0	101009	35344
86.18	23341ca4e4830bee	61904	1729118	8448	32416	25568	0	101021	35088
86.18	23341ca4e4830bee	61904	1729310	8448	32416	25568	0	101007	35088