Digit_temp	id	light	timestamp	acc_z	acc_y	acc_x	motion	pressure	humid
86.54	23341ca4e4830bee	61696	1460226	8576	30832	28128	0	101015	35104
86.54	23341ca4e4830bee	61696	1460425	8576	30832	28128	0	101023	35104
86.36	23341ca4e4830bee	61696	1460616	8576	30832	28128	0	101013	35104
86.54	23341ca4e4830bee	61696	1460807	8576	30832	28128	0	101017	35104
86.36	23341ca4e4830bee	61696	1460998	8576	30752	28128	0	101013	35152
86.36	23341ca4e4830bee	61696	1461198	8576	30752	28128	0	101023	35152
86.54	23341ca4e4830bee	61696	1461389	8576	30752	28128	0	101023	35152
86.36	23341ca4e4830bee	61696	1461570	8576	30752	28128	0	101015	35152
86.36	23341ca4e4830bee	61696	1461761	8576	30784	28144	0	101013	35088
86.36	23341ca4e4830bee	61696	1461952	8576	30784	28144	0	101013	35088
86.36	23341ca4e4830bee	61696	1462143	8576	30784	28144	0	101009	35088
86.36	23341ca4e4830bee	61696	1462334	8576	30784	28144	0	101011	35344
86.36	23341ca4e4830bee	61696	1462525	8576	30768	28128	0	101013	35344
86.54	23341ca4e4830bee	61696	1462716	8576	30768	28128	0	101021	35344
86.36	23341ca4e4830bee	61696	1462907	8576	30768	28128	0	101019	35344
86.36	23341ca4e4830bee	61696	1463098	8576	30784	28160	0	101015	35200
86.36	23341ca4e4830bee	61696	1463289	8576	30784	28160	0	101013	35200
86.36	23341ca4e4830bee	61696	1463475	8576	30784	28160	0	101013	35200
86.36	23341ca4e4830bee	61696	1463666	8576	30784	28160	0	101023	35200
86.36	23341ca4e4830bee	61696	1463857	8576	30784	28144	0	101007	35168
86.36	23341ca4e4830bee	61696	1464086	8576	30784	28144	0	101015	35168
86.36	23341ca4e4830bee	61696	1464277	8576	30784	28144	0	101013	35168
86.36	23341ca4e4830bee	61696	1464468	8576	30784	28144	0	101013	35168
86.36	23341ca4e4830bee	61696	1464659	8576	30768	28144	0	101017	35248
86.36	23341ca4e4830bee	61696	1464840	8576	30768	28144	0	101007	35248
86.36	23341ca4e4830bee	61696	1465031	8576	30768	28144	0	101017	35248
86.36	23341ca4e4830bee	61680	1465232	8576	30800	28144	0	101015	34944
86.36	23341ca4e4830bee	61680	1465423	8576	30800	28128	0	101017	34944
86.36	23341ca4e4830bee	61680	1465614	8576	30800	28128	0	101009	34944
86.54	23341ca4e4830bee	61680	1465805	8576	30800	28128	0	101021	34944
86.36	23341ca4e4830bee	61696	1465996	8576	30784	28144	0	101013	34992
86.54	23341ca4e4830bee	61696	1466187	8576	30784	28144	0	101029	34992
86.36	23341ca4e4830bee	61696	1466378	8576	30784	28144	0	101021	34992
86.36	23341ca4e4830bee	61696	1466569	8576	30784	28144	0	101019	34992
86.36	23341ca4e4830bee	61696	1466750	8576	30816	28112	0	101013	35232
86.36	23341ca4e4830bee	61696	1466942	8576	30816	28112	0	101013	35232
86.36	23341ca4e4830bee	61696	1467133	8576	30816	28112	0	101025	35232
86.36	23341ca4e4830bee	61696	1467325	8576	30816	28112	0	101013	35232
86.36	23341ca4e4830bee	61696	1467516	8576	30800	28128	0	101019	34976
86.36	23341ca4e4830bee	61696	1467707	8576	30800	28128	0	101013	34976
86.36	23341ca4e4830bee	61696	1467942	8576	30800	28128	0	101015	34976
86.36	23341ca4e4830bee	61696	1468133	8576	30784	28096	0	101015	35312
86.36	23341ca4e4830bee	61696	1468330	8576	30784	28096	0	101013	35312
86.36	23341ca4e4830bee	61696	1468521	8576	30784	28096	0	101021	35312
86.36	23341ca4e4830bee	61696	1468712	8576	30784	28096	0	101009	35312
86.36	23341ca4e4830bee	61696	1468903	8576	30800	28096	0	101019	35200
86.36	23341ca4e4830bee	61696	1469094	8576	30800	28096	0	101033	35200
86.36	23341ca4e4830bee	61696	1469285	8576	30800	28096	0	101015	35200
86.36	23341ca4e4830bee	61696	1469476	8576	30800	28096	0	101009	35200
86.36	23341ca4e4830bee	61696	1469667	8576	30800	28112	0	101013	35088
86.36	23341ca4e4830bee	61696	1469858	8576	30800	28112	0	101019	35088
86.36	23341ca4e4830bee	61696	1470049	8576	30800	28112	0	101015	35088
86.36	23341ca4e4830bee	61696	1470240	8576	30800	28112	0	101015	35088
86.36	23341ca4e4830bee	61696	1470431	8576	30800	28160	0	101019	35120
86.36	23341ca4e4830bee	61696	1470622	8576	30800	28160	0	101025	35120
86.36	23341ca4e4830bee	61696	1470813	8576	30800	28160	0	101023	35120
86.36	23341ca4e4830bee	61680	1471005	8576	30800	28160	0	101009	35360
86.36	23341ca4e4830bee	61680	1471196	8576	30784	28128	0	101005	35360
86.36	23341ca4e4830bee	61680	1471387	8576	30784	28128	0	101013	35360
86.36	23341ca4e4830bee	61680	1471578	8576	30784	28128	0	101013	35360
86.36	23341ca4e4830bee	61696	1471813	8576	30784	28128	0	101023	35328
86.36	23341ca4e4830bee	61696	1472004	8576	30784	28128	0	101003	35328
86.36	23341ca4e4830bee	61696	1472195	8576	30784	28128	0	101009	35328
86.36	23341ca4e4830bee	61696	1472386	8576	30784	28128	0	101019	35328
86.36	23341ca4e4830bee	61696	1472577	8576	30800	28128	0	101009	34960
86.36	23341ca4e4830bee	61696	1472768	8576	30800	28128	0	101015	34960
86.36	23341ca4e4830bee	61696	1472959	8576	30800	28128	0	101009	34960
86.36	23341ca4e4830bee	61696	1473150	8576	30800	28128	0	101013	35040
86.36	23341ca4e4830bee	61696	1473332	8576	30784	28128	0	101011	35040
86.36	23341ca4e4830bee	61696	1473523	8576	30784	28128	0	101003	35040
86.36	23341ca4e4830bee	61696	1473714	8576	30784	28128	0	101017	35040
86.36	23341ca4e4830bee	61696	1473905	8576	30816	28128	0	101017	35280
86.36	23341ca4e4830bee	61696	1474096	8576	30816	28096	0	101015	35280
86.36	23341ca4e4830bee	61696	1474291	8576	30816	28096	0	101011	35280
86.36	23341ca4e4830bee	61696	1474482	8576	30816	28096	0	101011	35280
86.36	23341ca4e4830bee	61696	1474674	8576	30784	28160	0	101005	35360
86.36	23341ca4e4830bee	61696	1474865	8576	30784	28160	0	101019	35360
86.36	23341ca4e4830bee	61696	1475056	8576	30784	28160	0	101015	35360
86.36	23341ca4e4830bee	61696	1475247	8576	30784	28160	0	101007	35360
86.36	23341ca4e4830bee	61696	1475438	8576	30800	28112	0	101015	35216
86.36	23341ca4e4830bee	61696	1475676	8576	30800	28112	0	101017	35216
86.36	23341ca4e4830bee	61696	1475867	8576	30800	28112	0	101005	35216
86.36	23341ca4e4830bee	61696	1476058	8576	30800	28112	0	101021	35056
86.36	23341ca4e4830bee	61696	1476249	8576	30800	28128	0	101011	35056
86.36	23341ca4e4830bee	61696	1476440	8576	30800	28128	0	101011	35056
86.36	23341ca4e4830bee	61696	1476631	8576	30800	28128	0	101015	35056
86.36	23341ca4e4830bee	61696	1476812	8576	30784	28096	0	101017	35056
86.36	23341ca4e4830bee	61696	1477003	8576	30784	28096	0	101015	35056
86.36	23341ca4e4830bee	61696	1477194	8576	30784	28096	0	101005	35056
86.36	23341ca4e4830bee	61696	1477385	8576	30784	28096	0	101011	35056
86.36	23341ca4e4830bee	61696	1477576	8576	30784	28144	0	101011	35248
86.36	23341ca4e4830bee	61696	1477767	8576	30784	28144	0	101013	35248
86.36	23341ca4e4830bee	61696	1477958	8576	30784	28144	0	101017	35248
86.36	23341ca4e4830bee	61696	1478149	8576	30784	28144	0	101021	35248
86.36	23341ca4e4830bee	61696	1478340	8576	30768	28080	0	101017	35152
86.36	23341ca4e4830bee	61696	1478531	8576	30768	28080	0	101015	35152
86.36	23341ca4e4830bee	61696	1478722	8576	30768	28080	0	101013	35152
86.36	23341ca4e4830bee	61696	1478913	8576	30768	28080	0	101021	35152
86.36	23341ca4e4830bee	61680	1479105	8576	30816	28144	0	101011	35328
86.36	23341ca4e4830bee	61680	1479296	8576	30816	28144	0	101017	35328
86.36	23341ca4e4830bee	61680	1479523	8576	30816	28144	0	101021	35328
86.36	23341ca4e4830bee	61696	1479714	8576	30816	28128	0	101021	35200
86.36	23341ca4e4830bee	61696	1479905	8576	30816	28128	0	101007	35200
86.36	23341ca4e4830bee	61696	1480096	8576	30816	28128	0	101017	35200
86.36	23341ca4e4830bee	61696	1480287	8576	30816	28128	0	101021	35200
86.36	23341ca4e4830bee	61680	1480478	8576	30784	28128	0	101011	35216
86.36	23341ca4e4830bee	61680	1480669	8576	30784	28128	0	101021	35216
86.36	23341ca4e4830bee	61680	1480861	8576	30784	28128	0	101011	35216
86.36	23341ca4e4830bee	61680	1481052	8576	30784	28128	0	101009	35216
86.36	23341ca4e4830bee	61680	1481243	8576	30768	28112	0	101017	35120
86.36	23341ca4e4830bee	61680	1481434	8576	30768	28112	0	101017	35120
86.36	23341ca4e4830bee	61680	1481625	8576	30768	28112	0	101001	35120
86.36	23341ca4e4830bee	61680	1481816	8576	30768	28112	0	101021	35248
86.36	23341ca4e4830bee	61696	1482007	8576	30800	28128	0	101011	35248
86.36	23341ca4e4830bee	61696	1482198	8576	30800	28128	0	101013	35248
86.36	23341ca4e4830bee	61696	1482389	8576	30800	28128	0	101011	35248
86.36	23341ca4e4830bee	61696	1482581	8576	30768	28128	0	101017	35120
86.36	23341ca4e4830bee	61696	1482762	8576	30768	28160	0	101011	35120
86.36	23341ca4e4830bee	61696	1482953	8576	30768	28160	0	101017	35120
86.36	23341ca4e4830bee	61696	1483144	8576	30768	28160	0	101019	35120
86.36	23341ca4e4830bee	61680	1483380	8576	30816	28160	0	101017	34976
86.36	23341ca4e4830bee	61680	1483571	8576	30816	28160	0	101015	34976
86.36	23341ca4e4830bee	61680	1483762	8576	30816	28160	0	101015	34976
86.36	23341ca4e4830bee	61680	1483953	8576	30816	28160	0	101011	34976
86.36	23341ca4e4830bee	61680	1484144	8576	30832	28160	0	101009	35120
86.36	23341ca4e4830bee	61680	1484335	8576	30832	28160	0	101017	35120
86.36	23341ca4e4830bee	61680	1484526	8576	30832	28160	0	101007	35120
86.36	23341ca4e4830bee	61680	1484717	8576	30832	28160	0	101019	35024
86.36	23341ca4e4830bee	61680	1484908	8576	30784	28160	0	101007	35024
86.36	23341ca4e4830bee	61680	1485099	8576	30784	28160	0	101011	35024
86.36	23341ca4e4830bee	61680	1485310	8576	30784	28160	0	101017	35024
86.36	23341ca4e4830bee	61680	1485501	8576	30768	28128	0	101017	35280
86.36	23341ca4e4830bee	61680	1485692	8576	30768	28128	0	101017	35280
86.36	23341ca4e4830bee	61680	1485873	8576	30768	28128	0	101015	35280
86.36	23341ca4e4830bee	61680	1486064	8576	30768	28128	0	101017	35280
86.36	23341ca4e4830bee	61680	1486255	8576	30800	28128	0	101011	35040
86.36	23341ca4e4830bee	61680	1486446	8576	30800	28128	0	101011	35040
86.36	23341ca4e4830bee	61680	1486637	8576	30800	28128	0	101017	35040
86.36	23341ca4e4830bee	61680	1486829	8576	30800	28128	0	101015	35040
86.36	23341ca4e4830bee	61696	1487020	8576	30784	28112	0	101015	35344
86.36	23341ca4e4830bee	61696	1487243	8576	30784	28112	0	101011	35344
86.36	23341ca4e4830bee	61696	1487434	8576	30784	28112	0	101011	35344
86.36	23341ca4e4830bee	61680	1487625	8576	30784	28112	0	101017	35200
86.36	23341ca4e4830bee	61680	1487816	8576	30768	28128	0	101019	35200
86.36	23341ca4e4830bee	61680	1488007	8576	30768	28128	0	101009	35200
86.36	23341ca4e4830bee	61680	1488198	8576	30768	28128	0	101017	35200
86.36	23341ca4e4830bee	61680	1488389	8576	30752	28128	0	101011	35024
86.36	23341ca4e4830bee	61680	1488580	8576	30752	28128	0	101011	35024
86.36	23341ca4e4830bee	61680	1488772	8576	30752	28128	0	101015	35024
86.36	23341ca4e4830bee	61680	1488963	8576	30752	28128	0	101019	35024
86.36	23341ca4e4830bee	61680	1489154	8576	30768	28144	0	101015	35040
86.36	23341ca4e4830bee	61680	1489345	8576	30768	28144	0	101011	35040
86.36	23341ca4e4830bee	61680	1489536	8576	30768	28144	0	101021	35040
86.36	23341ca4e4830bee	61680	1489727	8576	30768	28144	0	101007	35040
86.36	23341ca4e4830bee	61680	1489918	8576	30816	28112	0	101019	35360
86.36	23341ca4e4830bee	61680	1490109	8576	30816	28112	0	101015	35360
86.36	23341ca4e4830bee	61680	1490301	8576	30816	28112	0	101023	35360
86.36	23341ca4e4830bee	61680	1490492	8576	30816	28112	0	101011	35280
86.36	23341ca4e4830bee	61680	1490673	8576	30768	28160	0	101021	35280
86.36	23341ca4e4830bee	61680	1490864	8576	30768	28160	0	101015	35280
86.36	23341ca4e4830bee	61680	1491107	8576	30768	28160	0	101017	35280
86.36	23341ca4e4830bee	61680	1491298	8576	30768	28128	0	101005	35104
86.36	23341ca4e4830bee	61680	1491489	8576	30768	28128	0	101019	35104
86.36	23341ca4e4830bee	61680	1491680	8576	30768	28128	0	101015	35104
86.36	23341ca4e4830bee	61680	1491871	8576	30768	28128	0	101023	35104
86.36	23341ca4e4830bee	61680	1492062	8576	30816	28128	0	101019	35200
86.36	23341ca4e4830bee	61680	1492253	8576	30816	28128	0	101011	35200
86.36	23341ca4e4830bee	61680	1492434	8576	30816	28128	0	101011	35200
86.36	23341ca4e4830bee	61680	1492625	8576	30816	28128	0	101019	35200
86.36	23341ca4e4830bee	61680	1492816	8576	30784	28160	0	101013	35024
86.36	23341ca4e4830bee	61680	1493007	8576	30784	28160	0	101011	35024
86.36	23341ca4e4830bee	61680	1493198	8576	30784	28160	0	101015	35024
86.36	23341ca4e4830bee	61696	1493389	8576	30784	28160	0	101011	35216
86.36	23341ca4e4830bee	61696	1493580	8576	30784	28128	0	101015	35216
86.36	23341ca4e4830bee	61696	1493771	8576	30784	28128	0	101017	35216
86.36	23341ca4e4830bee	61696	1493962	8576	30784	28128	0	101021	35216
86.36	23341ca4e4830bee	61696	1494153	8576	30800	28144	0	101015	35136
86.36	23341ca4e4830bee	61696	1494344	8576	30800	28144	0	101015	35136
86.36	23341ca4e4830bee	61696	1494535	8576	30800	28144	0	101011	35136
86.36	23341ca4e4830bee	61696	1494726	8576	30800	28144	0	101001	35136
86.36	23341ca4e4830bee	61696	1494970	8576	30784	28128	0	101015	35216
86.36	23341ca4e4830bee	61696	1495161	8576	30784	28128	0	101023	35216
86.36	23341ca4e4830bee	61696	1495352	8576	30784	28128	0	101027	35216
86.36	23341ca4e4830bee	61696	1495543	8576	30784	28128	0	101015	34960
86.36	23341ca4e4830bee	61696	1495724	8576	30784	28128	0	101023	34960
86.36	23341ca4e4830bee	61696	1495915	8576	30784	28128	0	101011	34960
86.36	23341ca4e4830bee	61696	1496106	8576	30784	28128	0	101009	34960
86.36	23341ca4e4830bee	61680	1496297	8576	30784	28128	0	101021	35152
86.36	23341ca4e4830bee	61680	1496488	8576	30784	28112	0	101021	35152
86.36	23341ca4e4830bee	61680	1496679	8576	30784	28112	0	101009	35152
86.36	23341ca4e4830bee	61680	1496870	8576	30784	28112	0	101007	35152
86.36	23341ca4e4830bee	61696	1497061	8576	30784	28112	0	101007	35072
86.36	23341ca4e4830bee	61696	1497252	8576	30784	28112	0	101005	35072
86.36	23341ca4e4830bee	61696	1497444	8576	30784	28112	0	101013	35072
86.36	23341ca4e4830bee	61696	1497635	8576	30784	28112	0	101015	35072
86.36	23341ca4e4830bee	61680	1497826	8576	30768	28112	0	101009	35312
86.36	23341ca4e4830bee	61680	1498017	8576	30768	28112	0	101011	35312
86.36	23341ca4e4830bee	61680	1498209	8576	30768	28112	0	101009	35312
86.36	23341ca4e4830bee	61680	1498400	8576	30768	28112	0	101005	35312
86.36	23341ca4e4830bee	61696	1498591	8576	30800	28160	0	101019	35088
86.36	23341ca4e4830bee	61696	1498824	8576	30800	28160	0	101011	35088
86.36	23341ca4e4830bee	61696	1499015	8576	30800	28160	0	101021	35088
86.36	23341ca4e4830bee	61696	1499206	8576	30784	28080	0	101011	35280
86.36	23341ca4e4830bee	61696	1499397	8576	30784	28080	0	101011	35280
86.36	23341ca4e4830bee	61696	1499588	8576	30784	28080	0	101011	35280
86.36	23341ca4e4830bee	61696	1499779	8576	30784	28080	0	101021	35280
86.36	23341ca4e4830bee	61696	1499970	8576	30800	28144	0	101015	35104
86.36	23341ca4e4830bee	61696	1500161	8576	30800	28144	0	101017	35104
86.36	23341ca4e4830bee	61696	1500352	8576	30800	28144	0	101021	35104
86.36	23341ca4e4830bee	61696	1500543	8576	30800	28144	0	101011	35104
86.36	23341ca4e4830bee	61680	1500724	8576	30784	28160	0	101011	34976
86.36	23341ca4e4830bee	61680	1500915	8576	30784	28160	0	101021	34976
86.36	23341ca4e4830bee	61680	1501106	8576	30784	28160	0	101015	34976
86.36	23341ca4e4830bee	61680	1501297	8576	30784	28160	0	101011	34976
86.36	23341ca4e4830bee	61680	1501488	8576	30768	28128	0	101015	35104
86.36	23341ca4e4830bee	61680	1501679	8576	30768	28128	0	101015	35104
86.36	23341ca4e4830bee	61680	1501870	8576	30768	28128	0	101015	35104
86.36	23341ca4e4830bee	61680	1502061	8576	30768	28128	0	101021	35104
86.36	23341ca4e4830bee	61680	1502252	8576	30752	28144	0	101021	35104
86.36	23341ca4e4830bee	61680	1502443	8576	30752	28144	0	101021	35104
86.36	23341ca4e4830bee	61680	1502672	8576	30752	28144	0	101011	35104
86.36	23341ca4e4830bee	61680	1502863	8576	30816	28112	0	101021	35344
86.36	23341ca4e4830bee	61680	1503054	8576	30816	28112	0	101007	35344
86.36	23341ca4e4830bee	61680	1503245	8576	30816	28112	0	101017	35344
86.36	23341ca4e4830bee	61680	1503436	8576	30816	28112	0	101011	35344
86.36	23341ca4e4830bee	61680	1503627	8576	30800	28080	0	101017	35184
86.36	23341ca4e4830bee	61680	1503818	8576	30800	28080	0	101005	35184
86.36	23341ca4e4830bee	61680	1504009	8576	30800	28080	0	101021	35184
86.36	23341ca4e4830bee	61680	1504200	8576	30800	28080	0	101015	35184
86.36	23341ca4e4830bee	61696	1504392	8576	30800	28128	0	101027	35008
86.36	23341ca4e4830bee	61696	1504583	8576	30800	28128	0	101013	35008
86.36	23341ca4e4830bee	61696	1504786	8576	30800	28128	0	101021	35008
86.36	23341ca4e4830bee	61696	1504977	8576	30768	28128	0	101009	34976
86.36	23341ca4e4830bee	61696	1505169	8576	30768	28144	0	101015	34976
86.36	23341ca4e4830bee	61696	1505360	8576	30768	28144	0	101013	34976
86.36	23341ca4e4830bee	61696	1505551	8576	30768	28144	0	101015	34976
86.36	23341ca4e4830bee	61696	1505742	8576	30784	28128	0	101019	35136
86.36	23341ca4e4830bee	61696	1505933	8576	30784	28128	0	101011	35136
86.36	23341ca4e4830bee	61696	1506124	8576	30784	28128	0	101013	35136
86.36	23341ca4e4830bee	61696	1506321	8576	30784	28128	0	101013	35136
86.36	23341ca4e4830bee	61696	1506563	8576	30784	28128	0	101013	34928
86.36	23341ca4e4830bee	61696	1506754	8576	30784	28128	0	101013	34928
86.36	23341ca4e4830bee	61696	1506935	8576	30784	28128	0	101007	34928
86.36	23341ca4e4830bee	61680	1507126	8576	30784	28128	0	101015	35024
86.36	23341ca4e4830bee	61680	1507320	8576	30784	28112	0	101015	35024
86.36	23341ca4e4830bee	61680	1507511	8576	30784	28112	0	101009	35024
86.36	23341ca4e4830bee	61680	1507702	8576	30784	28112	0	101011	35024
86.36	23341ca4e4830bee	61696	1507893	8576	30832	28128	0	101009	35056
86.36	23341ca4e4830bee	61696	1508085	8576	30832	28128	0	101015	35056
86.36	23341ca4e4830bee	61696	1508276	8576	30832	28128	1	101019	35056
86.36	23341ca4e4830bee	61696	1508478	8576	30832	28128	1	101013	35056
86.36	23341ca4e4830bee	63824	1508669	8576	30752	28128	1	101019	35312
86.36	23341ca4e4830bee	63824	1508860	8576	30752	28128	1	101013	35312
86.36	23341ca4e4830bee	63824	1509051	8576	30752	28128	1	101015	35312
86.36	23341ca4e4830bee	63824	1509242	8576	30752	28128	1	101019	35312
86.36	23341ca4e4830bee	64448	1509433	8576	30896	25744	1	101017	35296
86.36	23341ca4e4830bee	64448	1509624	8576	30896	25744	1	101017	35296
86.36	23341ca4e4830bee	64448	1509805	8576	30896	25744	1	101019	35296
86.36	23341ca4e4830bee	64224	1509996	8576	30896	25744	0	101019	35344
86.36	23341ca4e4830bee	64224	1510188	8576	30928	25872	1	101013	35344
86.36	23341ca4e4830bee	64224	1510431	8576	30928	25872	1	101019	35344
86.36	23341ca4e4830bee	64224	1510622	8576	30928	25872	1	101015	35344
86.36	23341ca4e4830bee	63632	1510813	8576	30272	26144	1	101017	35040
86.36	23341ca4e4830bee	63632	1511004	8576	30272	26144	1	101021	35040
86.36	23341ca4e4830bee	63632	1511195	8576	30272	26144	1	101017	35040
86.36	23341ca4e4830bee	63632	1511376	8576	30272	26144	1	101021	35040
86.36	23341ca4e4830bee	63296	1511567	8576	31104	25728	1	101029	35312
86.18	23341ca4e4830bee	63296	1511758	8576	31104	25728	1	101009	35312
86.18	23341ca4e4830bee	63296	1511949	8576	31104	25728	1	101009	35312
86.18	23341ca4e4830bee	63296	1512140	8576	31104	25728	1	101015	35312
86.36	23341ca4e4830bee	63584	1512332	8576	30480	26112	1	101025	35248
86.18	23341ca4e4830bee	63584	1512523	8576	30480	26112	1	101011	35248
86.18	23341ca4e4830bee	63584	1512714	8576	30480	26112	1	101021	35248
86.18	23341ca4e4830bee	63600	1512905	8576	30480	26112	1	101011	35248
86.18	23341ca4e4830bee	63600	1513087	8576	30496	26144	0	101011	35248
86.18	23341ca4e4830bee	63600	1513278	8576	30496	26144	0	101009	35248
86.18	23341ca4e4830bee	63600	1513469	8576	30496	26144	0	101017	35248
86.18	23341ca4e4830bee	63616	1513660	8576	30480	26128	0	101015	35312
86.18	23341ca4e4830bee	63616	1513851	8576	30480	26128	0	101007	35312
86.18	23341ca4e4830bee	63616	1514043	8576	30480	26128	0	101015	35312
86.36	23341ca4e4830bee	63616	1514256	8576	30480	26128	0	101015	35312
86.36	23341ca4e4830bee	63616	1514447	8576	30512	26144	0	101013	35232
86.36	23341ca4e4830bee	63616	1514638	8576	30512	26144	0	101013	35232
86.36	23341ca4e4830bee	63616	1514830	8576	30512	26144	0	101013	35232
86.36	23341ca4e4830bee	63616	1515021	8576	30512	26144	1	101013	35232
86.36	23341ca4e4830bee	64000	1515212	8576	30304	26128	1	101029	35264
86.36	23341ca4e4830bee	64000	1515403	8576	30304	26128	1	101013	35264
86.18	23341ca4e4830bee	64000	1515594	8576	30304	26128	1	101015	35264
86.36	23341ca4e4830bee	64336	1515785	8576	30304	26128	1	101015	35328
86.36	23341ca4e4830bee	64336	1515966	8576	29648	25360	0	101017	35328
86.18	23341ca4e4830bee	64336	1516157	8576	29648	25360	1	101015	35328
86.18	23341ca4e4830bee	64336	1516348	8576	29648	25360	1	101015	35328
86.18	23341ca4e4830bee	64400	1516539	8576	30448	25952	1	101011	35024
86.18	23341ca4e4830bee	64400	1516730	8576	30448	25952	1	101021	35024
86.18	23341ca4e4830bee	64400	1516921	8576	30448	25952	1	101023	35024
86.18	23341ca4e4830bee	64400	1517112	8576	30448	25952	0	101005	35024
86.18	23341ca4e4830bee	64368	1517303	8576	30384	25952	0	101023	35056
86.18	23341ca4e4830bee	64368	1517494	8576	30384	25952	1	101019	35056
86.18	23341ca4e4830bee	64368	1517685	8576	30384	25952	0	101015	35056
86.18	23341ca4e4830bee	64368	1517866	8576	30384	25952	0	101025	35056
86.18	23341ca4e4830bee	64384	1518115	8576	30384	26000	0	101025	35152
86.18	23341ca4e4830bee	64384	1518306	8576	30384	26000	0	101015	35152
86.18	23341ca4e4830bee	64384	1518497	8576	30384	26000	0	101021	35152
86.18	23341ca4e4830bee	64432	1518688	8576	30384	26000	1	101015	35232
86.18	23341ca4e4830bee	64432	1518879	8576	30400	25984	1	101011	35232
86.18	23341ca4e4830bee	64432	1519070	8576	30400	25984	1	101017	35232
86.18	23341ca4e4830bee	64432	1519261	8576	30400	25984	1	101015	35232
86.18	23341ca4e4830bee	64752	1519452	8448	30352	25984	1	101015	35248
86.18	23341ca4e4830bee	64752	1519643	8448	30352	25984	1	101019	35248
86.0	23341ca4e4830bee	64752	1519835	8448	30352	25984	1	101009	35248
86.18	23341ca4e4830bee	64752	1520026	8448	30352	25984	1	101025	35248
86.0	23341ca4e4830bee	64832	1520207	8448	30400	25952	1	101013	35072
86.18	23341ca4e4830bee	64832	1520398	8448	30400	25952	1	101013	35072
86.18	23341ca4e4830bee	64832	1520589	8448	30400	25952	1	101015	35072
86.18	23341ca4e4830bee	64832	1520780	8448	30400	25952	1	101021	35072
86.18	23341ca4e4830bee	64608	1520971	8448	30400	26000	1	101021	35280
86.18	23341ca4e4830bee	64608	1521162	8448	30400	26000	1	101013	35280
86.18	23341ca4e4830bee	64608	1521354	8448	30400	26000	1	101007	35280
86.18	23341ca4e4830bee	64608	1521545	8448	30400	26000	1	101015	35232
86.18	23341ca4e4830bee	64704	1521726	8448	30400	25936	1	101011	35232
86.18	23341ca4e4830bee	64704	1521964	8448	30400	25936	1	101019	35232
86.18	23341ca4e4830bee	64704	1522155	8448	30400	25936	1	101013	35232
86.18	23341ca4e4830bee	64752	1522346	8576	30352	26000	1	101013	35264
86.18	23341ca4e4830bee	64752	1522537	8576	30352	26000	0	101013	35264
86.18	23341ca4e4830bee	64752	1522728	8576	30352	26000	1	101011	35264
86.18	23341ca4e4830bee	64752	1522919	8576	30352	26000	1	101011	35264
86.18	23341ca4e4830bee	64736	1523111	8576	30352	25952	1	101007	35024
86.18	23341ca4e4830bee	64736	1523307	8576	30352	25952	1	101013	35024
86.18	23341ca4e4830bee	64736	1523504	8576	30352	25952	1	101017	35024
86.18	23341ca4e4830bee	64736	1523695	8576	30352	25952	1	101013	35024
86.18	23341ca4e4830bee	64672	1523886	8576	30352	25952	1	101015	35120
86.18	23341ca4e4830bee	64672	1524067	8576	30352	25952	1	101017	35120
86.18	23341ca4e4830bee	64672	1524258	8576	30352	25952	0	101021	35120
86.18	23341ca4e4830bee	64784	1524449	8576	30352	25952	1	101015	35280
86.18	23341ca4e4830bee	64784	1524640	8576	30368	26000	1	101021	35280
86.18	23341ca4e4830bee	64784	1524832	8576	30368	26000	1	101005	35280
86.18	23341ca4e4830bee	64784	1525023	8576	30368	26000	1	101011	35280
86.18	23341ca4e4830bee	64784	1525214	8576	30352	25984	1	101015	35248
86.18	23341ca4e4830bee	64784	1525405	8576	30352	25984	1	101013	35248
86.18	23341ca4e4830bee	64784	1525596	8576	30352	25984	1	101009	35248
86.18	23341ca4e4830bee	64784	1525829	8576	30352	25984	1	101019	35248
86.18	23341ca4e4830bee	64784	1526020	8448	30384	25984	0	101019	35200
86.18	23341ca4e4830bee	64784	1526211	8448	30384	25984	0	101019	35200
86.18	23341ca4e4830bee	64784	1526402	8448	30384	25984	0	101013	35200
86.18	23341ca4e4830bee	64784	1526593	8448	30384	25984	0	101015	35200
86.18	23341ca4e4830bee	64784	1526784	8448	30336	25968	0	101017	35104
86.18	23341ca4e4830bee	64784	1526975	8448	30336	25968	0	101015	35104
86.18	23341ca4e4830bee	64784	1527166	8448	30336	25968	0	101021	35104
86.18	23341ca4e4830bee	64784	1527347	8576	30336	25968	0	101025	35040
86.18	23341ca4e4830bee	64784	1527538	8576	30336	25968	0	101015	35040
86.18	23341ca4e4830bee	64784	1527730	8576	30336	25968	0	101015	35040
86.18	23341ca4e4830bee	64784	1527921	8576	30336	25968	0	101023	35040
86.18	23341ca4e4830bee	64800	1528112	8576	30384	25968	0	101013	35232
86.18	23341ca4e4830bee	64800	1528303	8576	30384	25968	0	101017	35232
86.18	23341ca4e4830bee	64800	1528494	8576	30384	25968	0	101009	35232
86.18	23341ca4e4830bee	64800	1528685	8576	30384	25968	0	101019	35232
86.18	23341ca4e4830bee	64784	1528876	8576	30368	25920	0	101013	35280
86.18	23341ca4e4830bee	64784	1529058	8576	30368	25920	0	101029	35280
86.18	23341ca4e4830bee	64784	1529249	8576	30368	25920	0	101011	35280
86.18	23341ca4e4830bee	64784	1529440	8576	30368	25920	0	101015	35280
86.18	23341ca4e4830bee	64416	1529677	8576	30288	25968	1	101023	35248
86.18	23341ca4e4830bee	64416	1529858	8576	30288	25968	1	101019	35248
86.18	23341ca4e4830bee	64416	1530049	8576	30288	25968	1	101019	35248
86.18	23341ca4e4830bee	64512	1530240	8576	30288	25968	1	101015	35072
86.18	23341ca4e4830bee	64512	1530431	8576	30352	25968	1	101017	35072
86.18	23341ca4e4830bee	64512	1530622	8576	30352	25968	0	101015	35072
86.18	23341ca4e4830bee	64512	1530813	8576	30352	25968	0	101009	35072
86.18	23341ca4e4830bee	64496	1531004	8448	30384	25984	0	101005	35024
86.18	23341ca4e4830bee	64496	1531195	8448	30384	25984	0	101007	35024
86.18	23341ca4e4830bee	64496	1531386	8448	30384	25984	0	101015	35024
86.18	23341ca4e4830bee	64496	1531577	8448	30384	25984	1	101013	35024
86.18	23341ca4e4830bee	64512	1531774	8448	30384	25968	1	101009	34944
86.18	23341ca4e4830bee	64512	1531965	8448	30384	25968	1	101009	34944
86.18	23341ca4e4830bee	64512	1532156	8448	30384	25968	1	101015	34944
86.18	23341ca4e4830bee	64512	1532338	8448	30384	25968	0	101007	34944
86.18	23341ca4e4830bee	64512	1532529	8448	30336	26000	0	101007	35136
86.18	23341ca4e4830bee	64512	1532720	8448	30336	26000	0	101007	35136
86.18	23341ca4e4830bee	64512	1532911	8448	30336	26000	0	101007	35136
86.18	23341ca4e4830bee	64512	1533102	8576	30336	26000	0	101019	35200
86.18	23341ca4e4830bee	64512	1533296	8576	30352	26000	0	101007	35200
86.18	23341ca4e4830bee	64512	1533526	8576	30352	26000	0	101007	35200
86.18	23341ca4e4830bee	64512	1533717	8576	30352	26000	0	101013	35200
86.18	23341ca4e4830bee	64512	1533898	8576	30352	25984	0	101021	35056
86.18	23341ca4e4830bee	64512	1534089	8576	30352	25984	0	101009	35056
86.18	23341ca4e4830bee	64512	1534280	8576	30352	25984	0	101013	35056
86.18	23341ca4e4830bee	64512	1534471	8576	30352	25984	0	101021	35056
86.18	23341ca4e4830bee	64512	1534662	8576	30352	25984	0	101019	35248
86.18	23341ca4e4830bee	64512	1534854	8576	30352	25984	0	101013	35248
86.18	23341ca4e4830bee	64512	1535045	8576	30352	25984	0	101009	35248
86.18	23341ca4e4830bee	64512	1535236	8448	30352	25984	0	101009	35248
86.18	23341ca4e4830bee	64512	1535427	8448	30352	26000	0	101013	35072
86.18	23341ca4e4830bee	64512	1535620	8448	30352	26000	0	101015	35072
86.18	23341ca4e4830bee	64512	1535811	8448	30352	26000	0	101007	35072
86.18	23341ca4e4830bee	64512	1536002	8576	30352	26000	1	101017	35040
86.18	23341ca4e4830bee	64608	1536193	8576	30272	26000	1	101011	35040
86.18	23341ca4e4830bee	64608	1536384	8576	30272	26000	1	101017	35040
86.18	23341ca4e4830bee	64608	1536575	8576	30272	26000	1	101009	35040
86.18	23341ca4e4830bee	64784	1536766	8448	30240	26016	0	101005	35104
86.18	23341ca4e4830bee	64784	1536958	8448	30240	26016	1	101011	35104
86.18	23341ca4e4830bee	64784	1537149	8448	30240	26016	1	101015	35104
86.18	23341ca4e4830bee	64784	1537399	8448	30240	26016	1	101017	35104
86.18	23341ca4e4830bee	64816	1537590	8576	30240	26000	1	101009	35056
86.18	23341ca4e4830bee	64816	1537781	8576	30240	26000	1	101009	35056
86.18	23341ca4e4830bee	64816	1537972	8576	30240	26000	1	101009	35056
86.18	23341ca4e4830bee	64816	1538163	8448	30240	26000	0	101011	35088
86.18	23341ca4e4830bee	64928	1538363	8448	30336	25840	1	101011	35088
86.18	23341ca4e4830bee	64928	1538554	8448	30336	25840	1	101011	35088
86.18	23341ca4e4830bee	64928	1538745	8448	30336	25840	1	101017	35088
86.18	23341ca4e4830bee	64912	1538936	8448	30320	25920	1	101011	35264
86.18	23341ca4e4830bee	64912	1539127	8448	30320	25920	1	101023	35264
86.18	23341ca4e4830bee	64912	1539308	8448	30320	25920	1	101017	35264
86.18	23341ca4e4830bee	64912	1539499	8448	30320	25920	1	101023	35264
86.18	23341ca4e4830bee	64864	1539690	8448	30320	25936	1	101007	35104
86.18	23341ca4e4830bee	64864	1539881	8448	30320	25936	1	101013	35104
86.18	23341ca4e4830bee	64864	1540072	8448	30320	25936	1	101013	35104
86.18	23341ca4e4830bee	64864	1540264	8448	30320	25936	1	101007	35104
86.18	23341ca4e4830bee	64928	1540455	8448	30384	25936	0	101007	35232
86.18	23341ca4e4830bee	64928	1540646	8448	30384	25936	1	101023	35232
86.18	23341ca4e4830bee	64928	1540837	8448	30384	25936	1	101013	35232
86.18	23341ca4e4830bee	64928	1541018	8576	30384	25936	1	101015	35232
86.18	23341ca4e4830bee	65024	1541233	8576	30304	25936	1	101025	35248
86.18	23341ca4e4830bee	65024	1541424	8576	30304	25936	1	101013	35248
86.18	23341ca4e4830bee	65024	1541615	8576	30304	25936	1	101009	35248
86.18	23341ca4e4830bee	65072	1541806	8576	30304	25936	0	101013	35232
86.18	23341ca4e4830bee	65072	1541997	8576	30288	25936	0	101025	35232
86.18	23341ca4e4830bee	65072	1542188	8576	30288	25936	1	101007	35232
86.18	23341ca4e4830bee	65072	1542369	8576	30288	25936	1	101009	35232
86.18	23341ca4e4830bee	65040	1542560	8448	30272	26064	0	101025	35216
86.18	23341ca4e4830bee	65040	1542751	8448	30272	26064	1	101007	35216
86.18	23341ca4e4830bee	65040	1542942	8448	30272	26064	1	101015	35216
86.18	23341ca4e4830bee	65040	1543133	8448	30272	26064	1	101007	35216
86.18	23341ca4e4830bee	64736	1543324	8576	31888	25712	1	101011	35232
86.18	23341ca4e4830bee	64736	1543515	8576	31888	25712	1	101009	35232
86.18	23341ca4e4830bee	64736	1543706	8576	31888	25712	1	101019	35232
86.18	23341ca4e4830bee	64736	1543898	8576	31888	25712	1	101013	35232
86.18	23341ca4e4830bee	64208	1544079	8448	32080	25712	1	101015	35008
86.18	23341ca4e4830bee	64208	1544270	8448	32080	25712	1	101015	35008
86.18	23341ca4e4830bee	64208	1544461	8448	32080	25712	1	101009	35008
86.18	23341ca4e4830bee	64208	1544652	8448	32080	25712	1	101013	35008
86.18	23341ca4e4830bee	63232	1544844	8448	32032	25664	1	101015	35216
86.18	23341ca4e4830bee	63232	1545095	8448	32032	25664	1	101017	35216
86.18	23341ca4e4830bee	63232	1545305	8448	32032	25664	1	101015	35216
86.18	23341ca4e4830bee	62176	1545496	8448	32096	25680	1	101015	35088
86.18	23341ca4e4830bee	62176	1545687	8448	32096	25680	1	101009	35088
86.18	23341ca4e4830bee	62176	1545878	8448	32096	25680	1	101021	35088
86.18	23341ca4e4830bee	62176	1546059	8448	32096	25680	0	101019	35088
86.18	23341ca4e4830bee	62112	1546251	8448	32112	25712	0	101009	35184
86.18	23341ca4e4830bee	62112	1546442	8448	32112	25712	0	101015	35184
86.18	23341ca4e4830bee	62112	1546633	8448	32112	25712	1	101015	35184
86.18	23341ca4e4830bee	62112	1546824	8576	32112	25712	1	101019	35184
86.18	23341ca4e4830bee	62096	1547014	8576	32080	25712	0	101013	35088
86.18	23341ca4e4830bee	62096	1547205	8576	32080	25712	0	101015	35088
86.18	23341ca4e4830bee	62096	1547396	8576	32080	25712	0	101013	35088
86.18	23341ca4e4830bee	62080	1547588	8576	32096	25712	0	101013	35088
86.18	23341ca4e4830bee	62080	1547769	8576	32096	25696	0	101011	35088
86.18	23341ca4e4830bee	62080	1547960	8576	32096	25696	0	101007	35088
86.18	23341ca4e4830bee	62080	1548151	8576	32096	25696	0	101009	35088
86.18	23341ca4e4830bee	62064	1548342	8576	32112	25680	0	101027	35232
86.18	23341ca4e4830bee	62064	1548533	8576	32112	25680	0	101013	35232
86.18	23341ca4e4830bee	62064	1548724	8576	32112	25680	0	101015	35232
86.18	23341ca4e4830bee	62064	1548963	8576	32112	25680	0	101009	35232
86.18	23341ca4e4830bee	62064	1549154	8576	32096	25728	0	101003	35088
86.18	23341ca4e4830bee	62064	1549345	8576	32096	25728	0	101021	35088
86.18	23341ca4e4830bee	62064	1549537	8576	32096	25728	0	101017	35088
86.18	23341ca4e4830bee	62064	1549728	8448	32096	25728	0	101013	35056
86.18	23341ca4e4830bee	62064	1549919	8448	32128	25728	0	101005	35056
86.18	23341ca4e4830bee	62064	1550100	8448	32128	25728	0	101017	35056
86.18	23341ca4e4830bee	62064	1550291	8448	32128	25728	0	101019	35056
86.18	23341ca4e4830bee	62064	1550482	8448	32096	25728	0	101019	35072
86.18	23341ca4e4830bee	62064	1550673	8448	32096	25712	0	101019	35072
86.18	23341ca4e4830bee	62064	1550864	8448	32096	25712	0	101017	35072
86.18	23341ca4e4830bee	62064	1551055	8448	32096	25712	0	101007	35072
86.18	23341ca4e4830bee	62048	1551246	8448	32096	25728	0	101013	35072
86.18	23341ca4e4830bee	62048	1551437	8448	32096	25728	0	101019	35072
86.18	23341ca4e4830bee	62048	1551629	8448	32096	25728	0	101011	35072
86.18	23341ca4e4830bee	62048	1551810	8448	32096	25728	0	101007	35072
86.18	23341ca4e4830bee	62048	1552001	8448	32128	25712	0	101013	35200
86.18	23341ca4e4830bee	62048	1552192	8448	32128	25712	0	101009	35200
86.18	23341ca4e4830bee	62048	1552383	8448	32128	25712	0	101007	35200
86.18	23341ca4e4830bee	62048	1552575	8576	32128	25712	0	101019	35200
86.18	23341ca4e4830bee	62048	1552821	8576	32144	25696	0	101017	35056
86.18	23341ca4e4830bee	62048	1553012	8576	32144	25696	0	101013	35056
86.18	23341ca4e4830bee	62048	1553203	8576	32144	25696	0	101023	35056
86.18	23341ca4e4830bee	62048	1553394	8576	32112	25696	0	101011	35232
86.18	23341ca4e4830bee	62048	1553586	8576	32112	25696	0	101019	35232
86.18	23341ca4e4830bee	62048	1553777	8576	32112	25696	0	101019	35232
86.18	23341ca4e4830bee	62048	1553968	8576	32112	25696	0	101011	35232
86.18	23341ca4e4830bee	62032	1554159	8576	32128	25696	0	101019	35088
86.18	23341ca4e4830bee	62032	1554343	8576	32128	25696	0	101011	35088
86.18	23341ca4e4830bee	62032	1554534	8576	32128	25696	0	101017	35088
86.18	23341ca4e4830bee	62032	1554725	8576	32128	25696	0	101013	35088
86.18	23341ca4e4830bee	62016	1554916	8576	32160	25728	0	101013	35152
86.18	23341ca4e4830bee	62016	1555107	8576	32160	25728	0	101013	35152
86.18	23341ca4e4830bee	62016	1555298	8576	32160	25728	0	101007	35152
86.18	23341ca4e4830bee	62016	1555489	8576	32160	25728	0	101023	35152
86.18	23341ca4e4830bee	62016	1555670	8576	32144	25728	0	101013	35056
86.18	23341ca4e4830bee	62016	1555861	8576	32144	25728	0	101025	35056
86.18	23341ca4e4830bee	62016	1556052	8576	32144	25728	0	101007	35056
86.18	23341ca4e4830bee	62016	1556243	8448	32144	25728	0	101013	35104
86.18	23341ca4e4830bee	62016	1556434	8448	32144	25728	0	101019	35104
86.18	23341ca4e4830bee	62016	1556674	8448	32144	25728	0	101013	35104
86.18	23341ca4e4830bee	62016	1556865	8448	32144	25728	0	101011	35104
86.18	23341ca4e4830bee	62016	1557056	8576	32144	25728	0	101023	35104
86.18	23341ca4e4830bee	62016	1557247	8576	32144	25728	0	101013	35104
86.18	23341ca4e4830bee	62016	1557438	8576	32144	25728	0	101017	35104
86.18	23341ca4e4830bee	62016	1557629	8576	32144	25728	0	101011	35104
86.18	23341ca4e4830bee	62016	1557810	8576	32160	25728	0	101011	35184
86.18	23341ca4e4830bee	62016	1558001	8576	32160	25728	0	101011	35184
86.18	23341ca4e4830bee	62016	1558192	8576	32160	25728	0	101011	35184
86.18	23341ca4e4830bee	62016	1558383	8448	32160	25728	0	101013	35184
86.18	23341ca4e4830bee	62016	1558575	8448	32160	25728	0	101023	35232
86.18	23341ca4e4830bee	62016	1558766	8448	32160	25728	0	101013	35232
86.18	23341ca4e4830bee	62016	1558957	8448	32160	25728	0	101013	35232
86.18	23341ca4e4830bee	62016	1559148	8448	32144	25728	0	101011	35216
86.18	23341ca4e4830bee	62016	1559340	8448	32144	25728	0	101013	35216
86.18	23341ca4e4830bee	62016	1559529	8448	32144	25728	0	101005	35216
86.18	23341ca4e4830bee	62016	1559720	8448	32144	25728	0	101025	35216
86.18	23341ca4e4830bee	62000	1559901	8448	32176	25712	0	101017	35088
86.18	23341ca4e4830bee	62000	1560092	8448	32176	25712	0	101005	35088
86.18	23341ca4e4830bee	62000	1560304	8448	32176	25712	0	101013	35088
86.18	23341ca4e4830bee	62000	1560557	8576	32176	25712	0	101017	35200
86.18	23341ca4e4830bee	62000	1560748	8576	32160	25712	0	101013	35200
86.18	23341ca4e4830bee	62000	1560939	8576	32160	25712	0	101017	35200
86.18	23341ca4e4830bee	62000	1561130	8576	32160	25712	0	101013	35200
86.18	23341ca4e4830bee	62000	1561311	8448	32128	25712	0	101017	35248
86.18	23341ca4e4830bee	62000	1561502	8448	32128	25712	0	101011	35248
86.18	23341ca4e4830bee	62000	1561693	8448	32128	25712	0	101013	35248
86.18	23341ca4e4830bee	62000	1561884	8448	32128	25712	0	101007	35248
86.18	23341ca4e4830bee	62000	1562075	8448	32192	25712	0	101013	35232
86.18	23341ca4e4830bee	62000	1562266	8448	32192	25712	0	101017	35232
86.18	23341ca4e4830bee	62000	1562457	8448	32192	25712	0	101013	35232
86.18	23341ca4e4830bee	62000	1562648	8448	32192	25712	0	101013	35232
86.18	23341ca4e4830bee	62000	1562840	8576	32160	25712	0	101013	35248
86.18	23341ca4e4830bee	62000	1563031	8576	32160	25712	0	101015	35248
86.18	23341ca4e4830bee	62000	1563228	8576	32160	25712	0	101015	35248
86.18	23341ca4e4830bee	62000	1563419	8448	32160	25712	0	101019	35248
86.18	23341ca4e4830bee	62000	1563610	8448	32160	25712	0	101013	35152
86.18	23341ca4e4830bee	62000	1563801	8448	32160	25712	0	101013	35152
86.18	23341ca4e4830bee	62000	1563992	8448	32160	25712	0	101015	35152
86.18	23341ca4e4830bee	62000	1564183	8448	32160	25712	0	101013	35296
86.18	23341ca4e4830bee	62000	1564398	8448	32176	25712	0	101019	35296
86.18	23341ca4e4830bee	62000	1564606	8448	32176	25712	0	101013	35296
86.18	23341ca4e4830bee	62000	1564797	8448	32176	25712	0	101013	35296
86.18	23341ca4e4830bee	62000	1564988	8576	32176	25744	0	101013	35216
86.18	23341ca4e4830bee	62000	1565179	8576	32176	25744	0	101007	35216
86.18	23341ca4e4830bee	62000	1565370	8576	32176	25744	0	101017	35216
86.18	23341ca4e4830bee	62000	1565561	8576	32176	25744	0	101009	35216
86.18	23341ca4e4830bee	61984	1565746	8448	32208	25728	0	101013	35040
86.18	23341ca4e4830bee	61984	1565937	8448	32208	25728	0	101011	35040
86.18	23341ca4e4830bee	61984	1566128	8448	32208	25728	0	101013	35040
86.18	23341ca4e4830bee	61984	1566319	8576	32208	25728	0	101003	35040
86.18	23341ca4e4830bee	61984	1566510	8576	32240	25696	0	101019	35152
86.18	23341ca4e4830bee	61984	1566691	8576	32240	25696	0	101013	35152
86.18	23341ca4e4830bee	61984	1566882	8576	32240	25696	0	101017	35152
86.18	23341ca4e4830bee	61984	1567074	8448	32240	25696	0	101013	35232
86.18	23341ca4e4830bee	61984	1567265	8448	32192	25728	0	101019	35232
86.18	23341ca4e4830bee	61984	1567456	8448	32192	25728	0	101009	35232
86.18	23341ca4e4830bee	61984	1567647	8448	32192	25728	0	101019	35232
86.18	23341ca4e4830bee	61984	1567839	8448	32208	25712	0	101013	35056
86.18	23341ca4e4830bee	61984	1568030	8448	32208	25712	0	101009	35056
86.18	23341ca4e4830bee	61984	1568265	8448	32208	25712	0	101011	35056
86.18	23341ca4e4830bee	61984	1568456	8448	32208	25712	0	101009	35056
86.18	23341ca4e4830bee	61984	1568647	8448	32208	25728	0	101009	35136
86.18	23341ca4e4830bee	61984	1568839	8448	32208	25728	0	101015	35136
86.18	23341ca4e4830bee	61984	1569030	8448	32208	25728	0	101015	35136
86.18	23341ca4e4830bee	61984	1569221	8448	32208	25728	0	101007	34960
86.18	23341ca4e4830bee	61984	1569402	8448	32224	25712	0	101013	34960
86.18	23341ca4e4830bee	61984	1569593	8448	32224	25712	0	101019	34960
86.18	23341ca4e4830bee	61984	1569784	8448	32224	25712	0	101019	34960
86.18	23341ca4e4830bee	61984	1569975	8448	32224	25712	0	101013	35072
86.18	23341ca4e4830bee	61984	1570166	8448	32192	25680	0	101019	35072
86.18	23341ca4e4830bee	61984	1570357	8448	32192	25680	0	101015	35072
86.18	23341ca4e4830bee	61984	1570548	8448	32192	25680	0	101009	35072
86.18	23341ca4e4830bee	61984	1570739	8448	32176	25712	0	101019	35008
86.18	23341ca4e4830bee	61984	1570930	8448	32176	25712	0	101017	35008
86.18	23341ca4e4830bee	61984	1571121	8448	32176	25712	0	101015	35008
86.18	23341ca4e4830bee	61984	1571312	8448	32176	25712	0	101013	35008
86.18	23341ca4e4830bee	61984	1571504	8576	32176	25760	0	101013	35184
86.18	23341ca4e4830bee	61984	1571695	8576	32176	25760	0	101015	35184
86.18	23341ca4e4830bee	61984	1571886	8576	32176	25760	0	101013	35184