Digit_temp	id	light	timestamp	acc_z	acc_y	acc_x	motion	pressure	humid
83.84	23341ca4e4830bee	56688	1106025	8320	32240	31392	0	101113	34944
83.84	23341ca4e4830bee	56688	1106226	8320	32240	31392	0	101101	34944
83.84	23341ca4e4830bee	56688	1106417	8320	32240	31392	0	101103	34944
83.84	23341ca4e4830bee	56688	1106608	8320	32240	31392	0	101107	34944
83.84	23341ca4e4830bee	56704	1106799	8448	32192	31376	0	101107	34992
83.84	23341ca4e4830bee	56704	1106990	8448	32192	31376	0	101113	34992
83.84	23341ca4e4830bee	56704	1107181	8448	32192	31376	0	101113	34992
83.84	23341ca4e4830bee	56704	1107372	8320	32192	31376	0	101113	34992
83.84	23341ca4e4830bee	56688	1107563	8320	32224	31424	0	101101	35040
83.84	23341ca4e4830bee	56688	1107754	8320	32224	31424	0	101113	35040
83.84	23341ca4e4830bee	56688	1107945	8320	32224	31424	0	101107	35040
83.84	23341ca4e4830bee	56704	1108126	8320	32224	31424	0	101113	35040
83.84	23341ca4e4830bee	56704	1108317	8320	32272	31408	0	101107	35040
83.84	23341ca4e4830bee	56704	1108508	8320	32272	31408	0	101105	35040
83.84	23341ca4e4830bee	56704	1108699	8320	32272	31408	0	101113	35040
83.84	23341ca4e4830bee	56704	1108890	8448	32224	31360	0	101105	35024
83.84	23341ca4e4830bee	56704	1109081	8448	32224	31360	0	101109	35024
83.84	23341ca4e4830bee	56704	1109272	8448	32224	31360	0	101107	35024
83.84	23341ca4e4830bee	56704	1109463	8448	32224	31360	0	101105	35024
83.84	23341ca4e4830bee	56688	1109654	8320	32240	31392	0	101121	34976
83.84	23341ca4e4830bee	56688	1109891	8320	32240	31392	0	101121	34976
83.84	23341ca4e4830bee	56688	1110082	8320	32240	31392	0	101115	34976
83.84	23341ca4e4830bee	56704	1110293	8320	32240	31392	0	101109	35008
83.84	23341ca4e4830bee	56704	1110484	8320	32256	31408	0	101113	35008
83.84	23341ca4e4830bee	56704	1110675	8320	32256	31408	0	101105	35008
83.84	23341ca4e4830bee	56704	1110866	8320	32256	31408	0	101109	35008
83.84	23341ca4e4830bee	56704	1111047	8320	32240	31408	0	101121	35312
83.84	23341ca4e4830bee	56704	1111238	8320	32240	31408	0	101115	35312
83.84	23341ca4e4830bee	56704	1111429	8320	32240	31408	0	101115	35312
83.84	23341ca4e4830bee	56704	1111620	8320	32240	31408	0	101103	35312
83.84	23341ca4e4830bee	56704	1111812	8320	32256	31392	0	101115	35264
83.84	23341ca4e4830bee	56704	1112003	8320	32256	31392	0	101115	35264
83.84	23341ca4e4830bee	56704	1112194	8320	32256	31392	0	101115	35264
83.84	23341ca4e4830bee	56704	1112385	8320	32256	31392	0	101115	35264
83.84	23341ca4e4830bee	56704	1112576	8320	32256	31392	0	101113	35312
83.84	23341ca4e4830bee	56704	1112767	8320	32256	31392	0	101109	35312
83.84	23341ca4e4830bee	56704	1112959	8320	32256	31392	0	101117	35312
83.84	23341ca4e4830bee	56704	1113150	8320	32256	31392	0	101109	35312
83.84	23341ca4e4830bee	56704	1113341	8320	32240	31360	0	101113	35024
83.84	23341ca4e4830bee	56704	1113532	8320	32240	31360	0	101109	35024
83.84	23341ca4e4830bee	56704	1113766	8320	32240	31360	0	101103	35024
83.84	23341ca4e4830bee	56704	1113957	8320	32256	31392	0	101111	35024
83.84	23341ca4e4830bee	56704	1114148	8320	32256	31392	0	101107	35024
83.84	23341ca4e4830bee	56704	1114347	8320	32256	31392	0	101117	35024
83.84	23341ca4e4830bee	56704	1114538	8320	32256	31392	0	101113	35024
83.84	23341ca4e4830bee	56704	1114729	8320	32176	31376	0	101109	34960
83.84	23341ca4e4830bee	56704	1114920	8320	32176	31376	0	101107	34960
83.84	23341ca4e4830bee	56704	1115111	8320	32176	31376	0	101105	34960
83.84	23341ca4e4830bee	56704	1115302	8320	32176	31376	0	101109	34960
83.84	23341ca4e4830bee	56688	1115494	8320	32240	31408	0	101105	35072
83.84	23341ca4e4830bee	56688	1115685	8320	32240	31408	0	101115	35072
83.84	23341ca4e4830bee	56688	1115876	8320	32240	31408	0	101109	35072
83.84	23341ca4e4830bee	56688	1116057	8320	32240	31408	0	101117	34976
83.84	23341ca4e4830bee	56704	1116248	8320	32240	31408	0	101117	34976
83.84	23341ca4e4830bee	56704	1116439	8320	32240	31408	0	101107	34976
83.84	23341ca4e4830bee	56704	1116630	8320	32240	31408	0	101113	34976
83.84	23341ca4e4830bee	56704	1116822	8320	32208	31376	0	101119	35264
83.84	23341ca4e4830bee	56704	1117013	8320	32208	31376	0	101117	35264
83.84	23341ca4e4830bee	56704	1117204	8320	32208	31376	0	101113	35264
83.84	23341ca4e4830bee	56704	1117395	8320	32208	31376	0	101113	35264
83.84	23341ca4e4830bee	56704	1117621	8320	32240	31376	0	101119	35248
83.84	23341ca4e4830bee	56704	1117812	8320	32240	31376	0	101119	35248
83.84	23341ca4e4830bee	56704	1118003	8320	32240	31376	0	101113	35248
83.84	23341ca4e4830bee	56704	1118194	8320	32240	31376	0	101113	35248
83.84	23341ca4e4830bee	56704	1118394	8320	32224	31408	0	101121	35344
83.84	23341ca4e4830bee	56704	1118585	8320	32224	31408	0	101117	35344
83.84	23341ca4e4830bee	56704	1118776	8320	32224	31408	0	101115	35344
83.84	23341ca4e4830bee	56704	1118957	8320	32224	31408	0	101111	35280
83.84	23341ca4e4830bee	56704	1119148	8320	32256	31408	0	101113	35280
83.84	23341ca4e4830bee	56704	1119339	8320	32256	31408	0	101117	35280
83.84	23341ca4e4830bee	56704	1119530	8320	32256	31408	0	101111	35280
83.84	23341ca4e4830bee	56704	1119721	8320	32208	31392	0	101115	35264
83.84	23341ca4e4830bee	56704	1119913	8320	32208	31392	0	101117	35264
83.84	23341ca4e4830bee	56704	1120104	8320	32208	31392	0	101111	35264
83.84	23341ca4e4830bee	56704	1120296	8320	32208	31392	0	101107	35264
83.84	23341ca4e4830bee	56704	1120487	8320	32208	31344	0	101117	35328
83.84	23341ca4e4830bee	56704	1120678	8320	32208	31344	0	101117	35328
83.84	23341ca4e4830bee	56704	1120869	8320	32208	31344	0	101113	35328
83.84	23341ca4e4830bee	56704	1121060	8320	32208	31344	0	101119	35328
83.84	23341ca4e4830bee	56704	1121252	8448	32240	31360	0	101113	35104
83.84	23341ca4e4830bee	56704	1121497	8448	32240	31360	0	101107	35104
83.84	23341ca4e4830bee	56704	1121678	8448	32240	31360	0	101111	35104
83.84	23341ca4e4830bee	56704	1121869	8320	32240	31360	0	101111	34944
83.84	23341ca4e4830bee	56704	1122060	8320	32240	31408	0	101113	34944
83.84	23341ca4e4830bee	56704	1122251	8320	32240	31408	0	101113	34944
83.84	23341ca4e4830bee	56704	1122442	8320	32240	31408	0	101111	34944
83.84	23341ca4e4830bee	56704	1122633	8320	32256	31392	0	101115	35312
83.84	23341ca4e4830bee	56704	1122824	8320	32256	31392	0	101111	35312
83.84	23341ca4e4830bee	56704	1123016	8320	32256	31392	0	101115	35312
83.84	23341ca4e4830bee	56704	1123207	8320	32256	31392	0	101105	35312
83.84	23341ca4e4830bee	56704	1123388	8320	32240	31376	0	101103	35008
83.84	23341ca4e4830bee	56704	1123579	8320	32240	31376	0	101111	35008
83.84	23341ca4e4830bee	56704	1123770	8320	32240	31376	0	101103	35008
84.02	23341ca4e4830bee	56704	1123961	8320	32240	31376	0	101113	35008
84.02	23341ca4e4830bee	56704	1124152	8320	32272	31376	0	101117	35040
83.84	23341ca4e4830bee	56704	1124351	8320	32272	31376	0	101109	35040
84.02	23341ca4e4830bee	56704	1124543	8320	32272	31376	0	101107	35040
84.02	23341ca4e4830bee	56704	1124734	8320	32272	31376	0	101117	35168
84.02	23341ca4e4830bee	56704	1124925	8320	32272	31344	0	101101	35168
84.02	23341ca4e4830bee	56704	1125117	8320	32272	31344	0	101105	35168
84.02	23341ca4e4830bee	56704	1125354	8320	32272	31344	0	101117	35168
84.02	23341ca4e4830bee	56704	1125545	8320	32224	31408	0	101117	35168
84.02	23341ca4e4830bee	56704	1125736	8320	32224	31408	0	101117	35168
84.02	23341ca4e4830bee	56704	1125927	8320	32224	31408	0	101117	35168
84.02	23341ca4e4830bee	56704	1126108	8320	32224	31408	0	101111	35168
84.02	23341ca4e4830bee	56704	1126300	8320	32256	31376	0	101113	35024
84.02	23341ca4e4830bee	56704	1126491	8320	32256	31376	0	101117	35024
84.02	23341ca4e4830bee	56704	1126682	8320	32256	31376	0	101119	35024
84.02	23341ca4e4830bee	56704	1126873	8320	32256	31376	0	101105	35024
84.02	23341ca4e4830bee	56704	1127065	8320	32256	31392	0	101111	35056
84.02	23341ca4e4830bee	56704	1127256	8320	32256	31392	0	101117	35056
84.02	23341ca4e4830bee	56704	1127447	8320	32256	31392	0	101117	35056
84.02	23341ca4e4830bee	56704	1127628	8320	32256	31392	0	101111	35104
84.02	23341ca4e4830bee	56704	1127819	8320	32272	31360	0	101111	35104
84.02	23341ca4e4830bee	56704	1128010	8320	32272	31360	0	101113	35104
84.02	23341ca4e4830bee	56704	1128201	8320	32272	31360	0	101105	35104
84.02	23341ca4e4830bee	56720	1128393	8320	32272	31392	0	101111	35120
84.02	23341ca4e4830bee	56720	1128584	8320	32272	31392	0	101113	35120
84.02	23341ca4e4830bee	56720	1128775	8320	32272	31392	0	101105	35120
84.02	23341ca4e4830bee	56720	1128966	8320	32272	31392	0	101117	35120
84.02	23341ca4e4830bee	56704	1129202	8320	32208	31392	0	101115	35264
84.02	23341ca4e4830bee	56704	1129393	8320	32208	31392	0	101105	35264
84.02	23341ca4e4830bee	56704	1129584	8320	32208	31392	0	101113	35264
84.02	23341ca4e4830bee	56704	1129775	8320	32208	31392	0	101111	35216
84.02	23341ca4e4830bee	56720	1129966	8320	32240	31408	0	101117	35216
84.02	23341ca4e4830bee	56720	1130157	8320	32240	31408	0	101105	35216
84.02	23341ca4e4830bee	56720	1130348	8320	32240	31408	0	101109	35216
84.02	23341ca4e4830bee	56704	1130539	8320	32208	31408	0	101127	35296
84.02	23341ca4e4830bee	56704	1130730	8320	32208	31360	0	101105	35296
84.02	23341ca4e4830bee	56704	1130921	8320	32208	31360	0	101115	35296
84.02	23341ca4e4830bee	56704	1131113	8320	32208	31360	0	101105	35296
84.02	23341ca4e4830bee	56704	1131304	8320	32272	31392	0	101113	34944
84.02	23341ca4e4830bee	56704	1131495	8320	32272	31392	0	101111	34944
84.02	23341ca4e4830bee	56704	1131686	8320	32272	31392	0	101115	34944
84.02	23341ca4e4830bee	56704	1131877	8320	32272	31392	0	101107	34944
84.02	23341ca4e4830bee	56720	1132058	8320	32288	31392	0	101115	35184
84.02	23341ca4e4830bee	56720	1132250	8320	32288	31392	0	101119	35184
84.02	23341ca4e4830bee	56720	1132441	8320	32288	31392	0	101111	35184
84.02	23341ca4e4830bee	56720	1132632	8320	32288	31392	0	101105	35184
84.02	23341ca4e4830bee	56704	1132823	8320	32240	31408	0	101117	35168
84.02	23341ca4e4830bee	56704	1133070	8320	32240	31408	0	101117	35168
84.02	23341ca4e4830bee	56704	1133261	8320	32240	31408	0	101109	35168
84.02	23341ca4e4830bee	56704	1133452	8448	32272	31344	0	101109	34928
84.02	23341ca4e4830bee	56704	1133651	8448	32272	31344	0	101111	34928
84.02	23341ca4e4830bee	56704	1133842	8448	32272	31344	0	101111	34928
84.02	23341ca4e4830bee	56704	1134033	8448	32272	31344	0	101105	34928
84.02	23341ca4e4830bee	56720	1134224	8320	32224	31392	0	101115	35328
84.02	23341ca4e4830bee	56720	1134415	8320	32224	31392	0	101119	35328
84.02	23341ca4e4830bee	56720	1134606	8320	32224	31392	0	101115	35328
84.02	23341ca4e4830bee	56720	1134798	8320	32224	31392	0	101113	35328
84.02	23341ca4e4830bee	56704	1134979	8320	32176	31392	0	101115	35152
84.02	23341ca4e4830bee	56704	1135170	8320	32176	31392	0	101107	35152
84.02	23341ca4e4830bee	56704	1135361	8320	32176	31392	0	101103	35152
84.02	23341ca4e4830bee	56704	1135552	8320	32176	31392	0	101113	35232
84.02	23341ca4e4830bee	56720	1135744	8320	32224	31376	0	101109	35232
84.02	23341ca4e4830bee	56720	1135935	8320	32224	31376	0	101109	35232
84.02	23341ca4e4830bee	56720	1136126	8320	32224	31376	0	101103	35232
84.02	23341ca4e4830bee	56720	1136328	8320	32224	31408	0	101107	34976
84.02	23341ca4e4830bee	56720	1136509	8320	32224	31408	0	101107	34976
84.02	23341ca4e4830bee	56720	1136701	8320	32224	31408	0	101115	34976
84.02	23341ca4e4830bee	56720	1136931	8320	32224	31408	0	101111	34976
84.02	23341ca4e4830bee	56704	1137122	8320	32240	31392	0	101113	35088
84.02	23341ca4e4830bee	56704	1137321	8320	32240	31392	0	101115	35088
84.02	23341ca4e4830bee	56704	1137512	8320	32240	31392	0	101113	35088
84.02	23341ca4e4830bee	56704	1137703	8320	32240	31392	0	101115	35088
84.02	23341ca4e4830bee	56720	1137894	8320	32304	31344	0	101115	35200
84.02	23341ca4e4830bee	56720	1138085	8320	32304	31344	0	101117	35200
84.02	23341ca4e4830bee	56720	1138276	8320	32304	31344	0	101115	35200
84.02	23341ca4e4830bee	56704	1138467	8320	32304	31344	0	101121	35008
84.02	23341ca4e4830bee	56704	1138658	8320	32256	31360	0	101111	35008
84.02	23341ca4e4830bee	56704	1138839	8320	32256	31360	0	101115	35008
84.02	23341ca4e4830bee	56704	1139030	8320	32256	31360	0	101111	35008
84.02	23341ca4e4830bee	56704	1139222	8320	32224	31360	0	101115	35232
84.02	23341ca4e4830bee	56704	1139413	8320	32224	31360	0	101103	35232
84.02	23341ca4e4830bee	56704	1139604	8320	32224	31360	0	101113	35232
84.02	23341ca4e4830bee	56704	1139795	8320	32224	31360	0	101095	35232
84.02	23341ca4e4830bee	56720	1139987	8320	32256	31424	0	101103	35056
84.02	23341ca4e4830bee	56720	1140178	8320	32256	31424	0	101115	35056
84.02	23341ca4e4830bee	56720	1140369	8320	32256	31424	0	101111	35056
84.02	23341ca4e4830bee	56720	1140560	8320	32256	31424	0	101113	35056
84.02	23341ca4e4830bee	56720	1140802	8320	32240	31408	0	101111	35344
84.02	23341ca4e4830bee	56720	1140993	8320	32240	31408	0	101111	35344
84.02	23341ca4e4830bee	56720	1141184	8320	32240	31408	0	101115	35344
84.02	23341ca4e4830bee	56720	1141375	8320	32208	31408	0	101107	35312
84.02	23341ca4e4830bee	56720	1141567	8320	32208	31360	0	101115	35312
84.02	23341ca4e4830bee	56720	1141758	8320	32208	31360	0	101117	35312
84.02	23341ca4e4830bee	56720	1141949	8320	32208	31360	0	101115	35312
84.02	23341ca4e4830bee	56720	1142130	8320	32240	31392	0	101121	35296
84.02	23341ca4e4830bee	56720	1142321	8320	32240	31392	0	101111	35296
84.02	23341ca4e4830bee	56720	1142512	8320	32240	31392	0	101111	35296
84.02	23341ca4e4830bee	56720	1142703	8320	32240	31392	0	101111	35296
84.02	23341ca4e4830bee	56704	1142894	8320	32256	31376	0	101109	35168
84.02	23341ca4e4830bee	56704	1143085	8320	32256	31376	0	101109	35168
84.02	23341ca4e4830bee	56704	1143277	8320	32256	31376	0	101103	35168
84.02	23341ca4e4830bee	56704	1143468	8320	32256	31376	0	101109	35168
84.02	23341ca4e4830bee	56720	1143659	8320	32240	31376	0	101103	34992
84.02	23341ca4e4830bee	56720	1143840	8320	32240	31376	0	101115	34992
84.02	23341ca4e4830bee	56720	1144031	8320	32240	31376	0	101107	34992
84.02	23341ca4e4830bee	56720	1144222	8320	32240	31376	0	101117	35264
84.02	23341ca4e4830bee	56720	1144414	8320	32256	31408	0	101109	35264
84.02	23341ca4e4830bee	56720	1144646	8320	32256	31408	0	101113	35264
84.02	23341ca4e4830bee	56720	1144837	8320	32256	31408	0	101109	35264
84.02	23341ca4e4830bee	56720	1145029	8320	32256	31360	0	101107	35312
84.02	23341ca4e4830bee	56720	1145220	8320	32256	31360	0	101103	35312
84.02	23341ca4e4830bee	56720	1145401	8320	32256	31360	0	101113	35312
84.02	23341ca4e4830bee	56720	1145592	8320	32256	31360	0	101101	35312
84.02	23341ca4e4830bee	56720	1145783	8448	32256	31392	0	101113	35008
84.02	23341ca4e4830bee	56720	1145974	8448	32256	31392	0	101103	35008
84.02	23341ca4e4830bee	56720	1146165	8448	32256	31392	0	101115	35008
84.02	23341ca4e4830bee	56720	1146356	8320	32256	31392	0	101107	35008
84.02	23341ca4e4830bee	56720	1146548	8320	32240	31392	0	101115	35296
84.2	23341ca4e4830bee	56720	1146739	8320	32240	31392	0	101107	35296
84.2	23341ca4e4830bee	56720	1146930	8320	32240	31392	0	101117	35296
84.02	23341ca4e4830bee	56736	1147121	8320	32240	31392	0	101113	35216
84.2	23341ca4e4830bee	56736	1147312	8320	32240	31408	0	101105	35216
84.2	23341ca4e4830bee	56736	1147503	8320	32240	31408	0	101117	35216
84.2	23341ca4e4830bee	56736	1147694	8320	32240	31408	0	101117	35216
84.02	23341ca4e4830bee	56896	1147886	8320	32272	31360	0	101107	35248
84.2	23341ca4e4830bee	56896	1148077	8320	32272	31360	0	101117	35248
84.02	23341ca4e4830bee	56896	1148268	8320	32272	31360	0	101113	35248
84.02	23341ca4e4830bee	56896	1148500	8320	32272	31360	0	101113	35248
84.2	23341ca4e4830bee	57120	1148681	8320	32224	31392	1	101113	35088
84.02	23341ca4e4830bee	57120	1148872	8320	32224	31392	1	101113	35088
84.02	23341ca4e4830bee	57120	1149063	8320	32224	31392	1	101113	35088
84.2	23341ca4e4830bee	57120	1149254	8320	32224	31392	1	101111	35088
84.2	23341ca4e4830bee	59056	1149445	8320	32224	31392	0	101109	34960
84.02	23341ca4e4830bee	59056	1149636	8320	32224	31392	1	101109	34960
84.02	23341ca4e4830bee	59056	1149827	8320	32224	31392	1	101109	34960
84.2	23341ca4e4830bee	56800	1150018	8320	32224	31392	1	101117	34928
84.02	23341ca4e4830bee	56800	1150209	8320	32240	31376	1	101103	34928
84.2	23341ca4e4830bee	56800	1150400	8320	32240	31376	0	101117	34928
84.02	23341ca4e4830bee	56800	1150591	8320	32240	31376	0	101107	34928
84.02	23341ca4e4830bee	56784	1150783	8320	32208	31392	1	101107	34976
84.02	23341ca4e4830bee	56784	1150974	8320	32208	31392	1	101119	34976
84.02	23341ca4e4830bee	56784	1151165	8320	32208	31392	0	101107	34976
84.02	23341ca4e4830bee	56784	1151356	8320	32208	31392	0	101107	34976
84.02	23341ca4e4830bee	56736	1151548	8320	32240	31408	0	101115	35344
84.02	23341ca4e4830bee	56736	1151739	8320	32240	31408	0	101109	35344
84.02	23341ca4e4830bee	56736	1151930	8320	32240	31408	0	101107	35344
84.02	23341ca4e4830bee	56736	1152111	8320	32240	31408	0	101109	35344
84.02	23341ca4e4830bee	56752	1152358	8320	32224	31392	0	101105	34992
84.02	23341ca4e4830bee	56752	1152549	8320	32224	31392	0	101107	34992
84.02	23341ca4e4830bee	56752	1152740	8320	32224	31392	0	101103	34992
84.02	23341ca4e4830bee	56720	1152922	8320	32224	31392	0	101109	35296
84.02	23341ca4e4830bee	56720	1153113	8320	32240	31408	0	101103	35296
84.02	23341ca4e4830bee	56720	1153304	8320	32240	31408	0	101111	35296
84.02	23341ca4e4830bee	56720	1153495	8320	32240	31408	0	101111	35296
84.02	23341ca4e4830bee	56736	1153686	8320	32272	31392	0	101109	34976
84.02	23341ca4e4830bee	56736	1153877	8320	32272	31392	0	101111	34976
84.02	23341ca4e4830bee	56736	1154068	8320	32272	31392	0	101109	34976
84.02	23341ca4e4830bee	56736	1154259	8320	32272	31392	0	101109	34976
84.02	23341ca4e4830bee	56736	1154450	8320	32256	31392	0	101115	35264
84.02	23341ca4e4830bee	56736	1154631	8320	32256	31392	0	101115	35264
84.02	23341ca4e4830bee	56736	1154823	8320	32256	31392	0	101111	35264
84.02	23341ca4e4830bee	56736	1155014	8320	32256	31392	0	101109	35264
84.02	23341ca4e4830bee	56736	1155205	8320	32256	31376	0	101105	35312
84.02	23341ca4e4830bee	56736	1155396	8320	32256	31376	0	101105	35312
84.02	23341ca4e4830bee	56736	1155587	8320	32256	31376	0	101103	35312
84.02	23341ca4e4830bee	56736	1155779	8448	32256	31376	0	101109	35072
84.02	23341ca4e4830bee	56720	1155970	8448	32224	31376	0	101103	35072
84.02	23341ca4e4830bee	56720	1156206	8448	32224	31376	0	101117	35072
84.02	23341ca4e4830bee	56720	1156397	8448	32224	31376	0	101111	35072
84.02	23341ca4e4830bee	56720	1156588	8320	32256	31408	0	101117	34960
84.02	23341ca4e4830bee	56720	1156779	8320	32256	31408	0	101115	34960
84.02	23341ca4e4830bee	56720	1156970	8320	32256	31408	0	101115	34960
84.02	23341ca4e4830bee	56720	1157161	8320	32256	31408	0	101109	34960
84.02	23341ca4e4830bee	56736	1157352	8320	32208	31376	0	101115	35344
84.02	23341ca4e4830bee	56736	1157544	8320	32208	31376	0	101117	35344
84.02	23341ca4e4830bee	56736	1157735	8320	32208	31376	0	101115	35344
84.02	23341ca4e4830bee	56736	1157926	8320	32208	31376	0	101101	35344
84.02	23341ca4e4830bee	56720	1158117	8320	32224	31392	0	101117	34960
84.02	23341ca4e4830bee	56720	1158308	8320	32224	31392	0	101111	34960
84.02	23341ca4e4830bee	56720	1158499	8320	32224	31392	0	101111	34960
84.02	23341ca4e4830bee	56736	1158690	8320	32224	31392	0	101111	34992
84.02	23341ca4e4830bee	56736	1158871	8320	32256	31392	0	101117	34992
84.02	23341ca4e4830bee	56736	1159063	8320	32256	31392	0	101111	34992
84.02	23341ca4e4830bee	56736	1159254	8320	32256	31392	0	101121	34992
84.02	23341ca4e4830bee	56720	1159445	8320	32224	31344	0	101109	35008
84.02	23341ca4e4830bee	56720	1159636	8320	32224	31344	0	101105	35008
84.02	23341ca4e4830bee	56720	1159827	8320	32224	31344	0	101111	35008
84.02	23341ca4e4830bee	56720	1160058	8320	32224	31344	0	101115	35008
84.02	23341ca4e4830bee	56736	1160249	8320	32240	31408	0	101103	35344
84.02	23341ca4e4830bee	56736	1160441	8320	32240	31408	0	101111	35344
84.02	23341ca4e4830bee	56736	1160622	8320	32240	31408	0	101111	35344
84.02	23341ca4e4830bee	56736	1160813	8320	32240	31408	0	101115	35344
84.02	23341ca4e4830bee	56736	1161004	8320	32192	31376	0	101115	35120
84.02	23341ca4e4830bee	56736	1161195	8320	32192	31376	0	101117	35120
84.02	23341ca4e4830bee	56736	1161386	8320	32192	31376	0	101117	35120
84.02	23341ca4e4830bee	56720	1161577	8320	32192	31376	0	101117	34976
84.02	23341ca4e4830bee	56720	1161768	8320	32256	31376	0	101123	34976
84.02	23341ca4e4830bee	56720	1161959	8320	32256	31376	0	101107	34976
84.02	23341ca4e4830bee	56720	1162150	8320	32256	31376	0	101103	34976
84.02	23341ca4e4830bee	56736	1162336	8320	32240	31360	0	101109	35040
84.02	23341ca4e4830bee	56736	1162527	8320	32240	31360	0	101111	35040
84.02	23341ca4e4830bee	56736	1162718	8320	32240	31360	0	101103	35040
84.02	23341ca4e4830bee	56736	1162909	8320	32240	31360	0	101117	35040
84.02	23341ca4e4830bee	56720	1163100	8320	32240	31392	0	101111	35040
84.02	23341ca4e4830bee	56720	1163282	8320	32240	31392	0	101107	35040
84.02	23341ca4e4830bee	56720	1163473	8320	32240	31392	0	101113	35040
84.02	23341ca4e4830bee	56720	1163664	8320	32240	31392	0	101119	35040
83.84	23341ca4e4830bee	56720	1163896	8320	32224	31392	0	101109	35200
83.84	23341ca4e4830bee	56720	1164087	8320	32224	31392	0	101105	35200
83.84	23341ca4e4830bee	56720	1164278	8320	32224	31392	0	101105	35200
83.84	23341ca4e4830bee	56720	1164469	8320	32224	31392	0	101113	35136
83.84	23341ca4e4830bee	56720	1164660	8320	32256	31408	0	101113	35136
83.84	23341ca4e4830bee	56720	1164851	8320	32256	31408	0	101105	35136
83.84	23341ca4e4830bee	56720	1165033	8320	32256	31408	0	101117	35136
83.84	23341ca4e4830bee	56720	1165224	8320	32272	31376	0	101105	35072
83.84	23341ca4e4830bee	56720	1165415	8320	32272	31376	0	101113	35072
83.84	23341ca4e4830bee	56720	1165606	8320	32272	31376	0	101109	35072
83.84	23341ca4e4830bee	56720	1165797	8320	32272	31376	0	101117	35072
83.84	23341ca4e4830bee	56736	1165989	8320	32256	31392	0	101117	35216
83.84	23341ca4e4830bee	56736	1166180	8320	32256	31392	0	101113	35216
83.84	23341ca4e4830bee	56736	1166371	8320	32256	31392	0	101103	35216
83.84	23341ca4e4830bee	56736	1166552	8320	32256	31392	0	101115	35216
83.84	23341ca4e4830bee	56720	1166743	8320	32240	31360	0	101113	35232
83.84	23341ca4e4830bee	56720	1166935	8320	32240	31360	0	101115	35232
83.84	23341ca4e4830bee	56720	1167126	8320	32240	31360	0	101115	35232
83.84	23341ca4e4830bee	56720	1167317	8320	32240	31360	0	101111	35232
83.84	23341ca4e4830bee	56768	1167508	8320	32256	31376	0	101127	35024
83.84	23341ca4e4830bee	56768	1167739	8320	32256	31376	0	101115	35024
83.84	23341ca4e4830bee	56768	1167930	8320	32256	31376	0	101115	35024
83.84	23341ca4e4830bee	56928	1168121	8320	32224	31392	0	101113	35056
83.84	23341ca4e4830bee	56928	1168303	8320	32224	31392	0	101109	35056
83.84	23341ca4e4830bee	56928	1168494	8320	32224	31392	1	101115	35056
83.84	23341ca4e4830bee	56928	1168685	8320	32224	31392	0	101115	35056
83.84	23341ca4e4830bee	56784	1168876	8320	32256	31408	1	101109	35264
83.84	23341ca4e4830bee	56784	1169067	8320	32256	31408	1	101111	35264
83.84	23341ca4e4830bee	56784	1169258	8320	32256	31408	0	101113	35264
83.84	23341ca4e4830bee	56784	1169449	8320	32256	31408	0	101105	35264
83.84	23341ca4e4830bee	56784	1169641	8320	32224	31392	0	101099	35376
83.84	23341ca4e4830bee	56784	1169832	8320	32224	31392	0	101109	35376
83.84	23341ca4e4830bee	56784	1170013	8320	32224	31392	0	101113	35376
83.84	23341ca4e4830bee	56784	1170204	8320	32224	31392	0	101115	35376
83.84	23341ca4e4830bee	56736	1170395	8320	32256	31376	0	101119	35088
83.84	23341ca4e4830bee	56736	1170586	8320	32256	31376	0	101119	35088
83.84	23341ca4e4830bee	56736	1170778	8320	32256	31376	0	101113	35088
83.84	23341ca4e4830bee	56720	1170969	8320	32256	31376	0	101111	34976
83.84	23341ca4e4830bee	56720	1171160	8320	32256	31424	0	101113	34976
83.84	23341ca4e4830bee	56720	1171351	8320	32256	31424	0	101119	34976
83.84	23341ca4e4830bee	56720	1171573	8320	32256	31424	0	101113	34976
83.84	23341ca4e4830bee	56736	1171764	8320	32192	31360	0	101113	35040
83.84	23341ca4e4830bee	56736	1171955	8320	32192	31360	0	101125	35040
83.84	23341ca4e4830bee	56736	1172146	8320	32192	31360	0	101109	35040
83.84	23341ca4e4830bee	56736	1172337	8320	32192	31360	0	101117	35040
83.84	23341ca4e4830bee	56736	1172529	8320	32256	31376	0	101111	35040
83.84	23341ca4e4830bee	56736	1172720	8320	32256	31376	0	101113	35040
83.84	23341ca4e4830bee	56736	1172911	8320	32256	31376	0	101117	35040
83.84	23341ca4e4830bee	56736	1173102	8320	32256	31376	0	101111	35040
83.84	23341ca4e4830bee	56736	1173283	8320	32272	31360	0	101105	35344
83.84	23341ca4e4830bee	56736	1173474	8320	32272	31360	0	101111	35344
83.84	23341ca4e4830bee	56736	1173665	8320	32272	31360	0	101107	35344
83.84	23341ca4e4830bee	56736	1173856	8448	32272	31360	0	101101	35072
83.84	23341ca4e4830bee	56736	1174048	8448	32272	31376	0	101113	35072
83.84	23341ca4e4830bee	56736	1174239	8448	32272	31376	0	101119	35072
83.84	23341ca4e4830bee	56736	1174430	8448	32272	31376	0	101105	35072
83.84	23341ca4e4830bee	56720	1174621	8320	32256	31360	0	101107	35232
83.84	23341ca4e4830bee	56720	1174803	8320	32256	31360	0	101113	35232
83.84	23341ca4e4830bee	56720	1174994	8320	32256	31360	0	101111	35232
83.84	23341ca4e4830bee	56720	1175185	8320	32256	31360	0	101113	35232
83.84	23341ca4e4830bee	56720	1175426	8320	32240	31376	0	101119	34960
83.84	23341ca4e4830bee	56720	1175617	8320	32240	31376	0	101113	34960
83.84	23341ca4e4830bee	56720	1175808	8320	32240	31376	0	101107	34960
83.84	23341ca4e4830bee	56720	1175999	8320	32240	31376	0	101107	34960
83.84	23341ca4e4830bee	56736	1176190	8320	32224	31424	0	101107	35120
83.84	23341ca4e4830bee	56736	1176384	8320	32224	31424	0	101099	35120
83.84	23341ca4e4830bee	56736	1176575	8320	32224	31424	0	101113	35120
83.84	23341ca4e4830bee	56720	1176766	8320	32240	31424	0	101105	35040
83.84	23341ca4e4830bee	56720	1176957	8320	32240	31408	0	101109	35040
83.84	23341ca4e4830bee	56720	1177148	8320	32240	31408	0	101113	35040
83.84	23341ca4e4830bee	56720	1177340	8320	32240	31408	0	101101	35040
83.84	23341ca4e4830bee	56736	1177531	8320	32256	31408	0	101109	35104
83.84	23341ca4e4830bee	56736	1177722	8320	32256	31408	0	101107	35104
83.84	23341ca4e4830bee	56736	1177903	8320	32256	31408	0	101119	35104
83.84	23341ca4e4830bee	56736	1178094	8320	32256	31408	0	101117	35104
83.84	23341ca4e4830bee	56736	1178285	8320	32256	31408	0	101117	35120
83.84	23341ca4e4830bee	56736	1178476	8320	32256	31408	0	101113	35120
83.84	23341ca4e4830bee	56736	1178668	8320	32256	31408	0	101105	35120
83.84	23341ca4e4830bee	56736	1178859	8320	32256	31408	0	101099	35120
83.84	23341ca4e4830bee	56720	1179050	8320	32272	31392	0	101107	35152
83.84	23341ca4e4830bee	56720	1179273	8320	32272	31392	0	101117	35152
83.84	23341ca4e4830bee	56720	1179454	8320	32272	31392	0	101113	35152
83.84	23341ca4e4830bee	56736	1179645	8320	32272	31392	0	101119	35280
83.84	23341ca4e4830bee	56736	1179836	8320	32208	31392	0	101113	35280
83.84	23341ca4e4830bee	56736	1180027	8320	32208	31392	0	101111	35280
83.84	23341ca4e4830bee	56736	1180218	8320	32208	31392	0	101113	35280
83.84	23341ca4e4830bee	56736	1180409	8320	32208	31376	0	101109	35296
83.84	23341ca4e4830bee	56736	1180600	8320	32208	31376	0	101111	35296
83.84	23341ca4e4830bee	56736	1180792	8320	32208	31376	0	101105	35296
83.84	23341ca4e4830bee	56736	1180983	8320	32208	31376	0	101119	35296
83.84	23341ca4e4830bee	56720	1181164	8320	32224	31392	0	101107	35120
83.84	23341ca4e4830bee	56720	1181355	8320	32224	31392	0	101113	35120
83.84	23341ca4e4830bee	56720	1181546	8320	32224	31392	0	101109	35120
83.84	23341ca4e4830bee	56720	1181737	8320	32224	31392	0	101109	35120
83.84	23341ca4e4830bee	56736	1181929	8320	32240	31376	0	101111	35088
83.84	23341ca4e4830bee	56736	1182120	8320	32240	31376	0	101115	35088
83.84	23341ca4e4830bee	56736	1182311	8320	32240	31376	0	101105	35088
83.84	23341ca4e4830bee	56736	1182502	8320	32240	31376	0	101117	35168
83.84	23341ca4e4830bee	56736	1182683	8320	32240	31424	0	101109	35168
83.84	23341ca4e4830bee	56736	1182875	8320	32240	31424	0	101111	35168
83.84	23341ca4e4830bee	56736	1183121	8320	32240	31424	0	101111	35168
83.84	23341ca4e4830bee	56736	1183312	8320	32256	31408	0	101117	35232
83.84	23341ca4e4830bee	56736	1183503	8320	32256	31408	0	101109	35232
83.84	23341ca4e4830bee	56736	1183694	8320	32256	31408	0	101105	35232
83.84	23341ca4e4830bee	56736	1183886	8320	32256	31408	0	101115	35232
83.84	23341ca4e4830bee	56736	1184077	8320	32256	31392	0	101105	34960
83.84	23341ca4e4830bee	56736	1184268	8320	32256	31392	0	101109	34960
83.84	23341ca4e4830bee	56736	1184459	8320	32256	31392	0	101111	34960
83.84	23341ca4e4830bee	56736	1184650	8320	32256	31392	0	101105	34960
83.84	23341ca4e4830bee	56720	1184841	8320	32240	31408	0	101105	34944
83.84	23341ca4e4830bee	56720	1185032	8320	32240	31408	0	101115	34944
83.84	23341ca4e4830bee	56720	1185223	8320	32240	31408	0	101099	34944
83.84	23341ca4e4830bee	56736	1185404	8320	32240	31408	0	101105	34976
83.84	23341ca4e4830bee	56736	1185595	8320	32240	31408	0	101109	34976
83.84	23341ca4e4830bee	56736	1185787	8320	32240	31408	0	101113	34976
83.84	23341ca4e4830bee	56736	1185978	8320	32240	31408	0	101105	34976
83.84	23341ca4e4830bee	56736	1186169	8320	32240	31344	0	101105	35344
83.84	23341ca4e4830bee	56736	1186372	8320	32240	31344	0	101109	35344
83.84	23341ca4e4830bee	56736	1186564	8320	32240	31344	0	101117	35344
83.84	23341ca4e4830bee	56736	1186755	8320	32240	31344	0	101111	35344
83.84	23341ca4e4830bee	56736	1186988	8320	32224	31376	0	101109	34960
83.84	23341ca4e4830bee	56736	1187179	8320	32224	31376	0	101107	34960
83.84	23341ca4e4830bee	56736	1187370	8320	32224	31376	0	101115	34960
83.84	23341ca4e4830bee	56736	1187561	8320	32224	31376	0	101115	35296
83.84	23341ca4e4830bee	56736	1187752	8320	32224	31392	0	101113	35296
83.84	23341ca4e4830bee	56736	1187943	8320	32224	31392	0	101109	35296
83.84	23341ca4e4830bee	56736	1188134	8320	32224	31392	0	101119	35296
83.84	23341ca4e4830bee	56720	1188325	8320	32240	31392	0	101113	35328
83.84	23341ca4e4830bee	56720	1188516	8320	32240	31376	0	101113	35328
83.84	23341ca4e4830bee	56720	1188707	8320	32240	31376	0	101113	35328
83.84	23341ca4e4830bee	56720	1188898	8320	32240	31376	0	101115	35328
83.84	23341ca4e4830bee	56736	1189090	8320	32240	31376	0	101113	35104
83.84	23341ca4e4830bee	56736	1189281	8320	32240	31376	0	101113	35104
83.84	23341ca4e4830bee	56736	1189472	8320	32240	31376	0	101119	35104
83.84	23341ca4e4830bee	56736	1189663	8320	32240	31376	0	101113	35104
83.84	23341ca4e4830bee	56736	1189844	8320	32240	31376	0	101099	35024
83.84	23341ca4e4830bee	56736	1190035	8320	32240	31376	0	101107	35024
83.84	23341ca4e4830bee	56736	1190227	8320	32240	31376	0	101113	35024
83.84	23341ca4e4830bee	56736	1190418	8320	32240	31376	0	101113	35024
83.84	23341ca4e4830bee	56736	1190609	8320	32256	31392	0	101109	35056
83.66	23341ca4e4830bee	56736	1190857	8320	32256	31392	0	101105	35056
83.66	23341ca4e4830bee	56736	1191048	8320	32256	31392	0	101111	35056
83.66	23341ca4e4830bee	56736	1191239	8320	32256	31376	0	101101	35280
83.84	23341ca4e4830bee	56736	1191430	8320	32256	31376	0	101113	35280
83.66	23341ca4e4830bee	56736	1191621	8320	32256	31376	0	101117	35280
83.66	23341ca4e4830bee	56736	1191812	8320	32256	31376	0	101111	35280
83.66	23341ca4e4830bee	56736	1192003	8320	32256	31408	0	101111	35072
83.66	23341ca4e4830bee	56736	1192184	8320	32256	31408	0	101105	35072
83.66	23341ca4e4830bee	56736	1192376	8320	32256	31408	0	101105	35072
83.84	23341ca4e4830bee	56736	1192567	8320	32256	31408	0	101109	35072
83.66	23341ca4e4830bee	56736	1192758	8320	32224	31424	0	101105	35104
83.84	23341ca4e4830bee	56736	1192949	8320	32224	31424	0	101115	35104
83.84	23341ca4e4830bee	56736	1193140	8320	32224	31424	0	101115	35104
83.66	23341ca4e4830bee	56736	1193334	8320	32224	31424	0	101101	35104
83.66	23341ca4e4830bee	56736	1193515	8320	32272	31392	0	101111	35056
83.66	23341ca4e4830bee	56736	1193706	8320	32272	31392	0	101111	35056
83.66	23341ca4e4830bee	56736	1193898	8320	32272	31392	0	101107	35056
83.66	23341ca4e4830bee	56736	1194089	8320	32272	31392	0	101101	35008
83.66	23341ca4e4830bee	56736	1194280	8320	32240	31408	0	101105	35008
83.66	23341ca4e4830bee	56736	1194471	8320	32240	31408	0	101107	35008
83.66	23341ca4e4830bee	56736	1194703	8320	32240	31408	0	101107	35008
83.66	23341ca4e4830bee	56736	1194894	8320	32240	31392	0	101107	35008
83.84	23341ca4e4830bee	56736	1195075	8320	32240	31392	0	101113	35008
83.84	23341ca4e4830bee	56736	1195266	8320	32240	31392	0	101121	35008
83.66	23341ca4e4830bee	56736	1195457	8320	32240	31392	0	101113	35008
83.84	23341ca4e4830bee	56736	1195648	8320	32256	31408	0	101113	35248
83.84	23341ca4e4830bee	56736	1195839	8320	32256	31408	0	101105	35248
83.84	23341ca4e4830bee	56736	1196030	8320	32256	31408	0	101113	35248
83.84	23341ca4e4830bee	56736	1196221	8320	32256	31408	0	101109	35248
83.66	23341ca4e4830bee	56736	1196413	8320	32240	31392	0	101105	35200
83.84	23341ca4e4830bee	56736	1196604	8320	32240	31392	0	101113	35200
83.84	23341ca4e4830bee	56736	1196795	8320	32240	31392	0	101113	35200
83.84	23341ca4e4830bee	56736	1196986	8448	32256	31392	0	101107	35088
83.84	23341ca4e4830bee	56736	1197177	8448	32256	31360	0	101101	35088
83.84	23341ca4e4830bee	56736	1197368	8448	32256	31360	0	101113	35088
83.84	23341ca4e4830bee	56736	1197559	8448	32256	31360	0	101109	35088
83.84	23341ca4e4830bee	56736	1197751	8320	32240	31360	0	101095	35040
83.84	23341ca4e4830bee	56736	1197942	8320	32240	31360	0	101107	35040
83.84	23341ca4e4830bee	56736	1198133	8320	32240	31360	0	101117	35040
83.84	23341ca4e4830bee	56736	1198334	8320	32240	31360	0	101107	35040
83.84	23341ca4e4830bee	56736	1198565	8320	32208	31440	0	101111	35360
83.84	23341ca4e4830bee	56736	1198746	8320	32208	31440	0	101105	35360
83.84	23341ca4e4830bee	56736	1198937	8320	32208	31440	0	101109	35360
83.84	23341ca4e4830bee	56736	1199128	8320	32208	31440	0	101109	35248
83.84	23341ca4e4830bee	56736	1199319	8320	32224	31392	0	101101	35248
83.84	23341ca4e4830bee	56736	1199510	8320	32224	31392	0	101095	35248
83.84	23341ca4e4830bee	56736	1199702	8320	32224	31392	0	101103	35248
83.84	23341ca4e4830bee	56736	1199893	8320	32192	31392	0	101099	35312
83.84	23341ca4e4830bee	56736	1200084	8320	32192	31392	0	101109	35312
83.84	23341ca4e4830bee	56736	1200295	8320	32192	31392	0	101109	35312
83.84	23341ca4e4830bee	56736	1200476	8320	32192	31392	0	101109	35312
83.84	23341ca4e4830bee	56736	1200667	8320	32240	31440	0	101109	35104
83.84	23341ca4e4830bee	56736	1200858	8320	32240	31440	0	101111	35104
83.84	23341ca4e4830bee	56736	1201049	8320	32240	31440	0	101107	35104
83.84	23341ca4e4830bee	56736	1201241	8320	32240	31440	0	101113	35104
83.84	23341ca4e4830bee	56736	1201432	8320	32224	31392	0	101115	35152
83.84	23341ca4e4830bee	56736	1201623	8320	32224	31392	0	101109	35152
83.84	23341ca4e4830bee	56736	1201814	8320	32224	31392	0	101105	35152
83.84	23341ca4e4830bee	56736	1202005	8320	32224	31392	0	101099	35232
83.84	23341ca4e4830bee	56736	1202187	8320	32224	31376	0	101113	35232
83.84	23341ca4e4830bee	56736	1202430	8320	32224	31376	0	101105	35232
83.84	23341ca4e4830bee	56736	1202621	8320	32224	31376	0	101109	35232
83.84	23341ca4e4830bee	56736	1202812	8448	32240	31392	0	101111	35296
83.84	23341ca4e4830bee	56736	1203003	8448	32240	31392	0	101113	35296
83.84	23341ca4e4830bee	56736	1203194	8448	32240	31392	0	101115	35296
83.84	23341ca4e4830bee	56736	1203385	8448	32240	31392	0	101113	35296
83.84	23341ca4e4830bee	56736	1203566	8320	32240	31408	0	101107	35120
83.84	23341ca4e4830bee	56736	1203757	8320	32240	31408	0	101109	35120
83.84	23341ca4e4830bee	56736	1203949	8320	32240	31408	0	101103	35120
83.84	23341ca4e4830bee	56736	1204140	8320	32240	31408	0	101117	35120
83.84	23341ca4e4830bee	56736	1204331	8320	32240	31440	0	101111	35104
83.84	23341ca4e4830bee	56736	1204522	8320	32240	31440	0	101113	35104
83.84	23341ca4e4830bee	56736	1204713	8320	32240	31440	0	101113	35104
83.84	23341ca4e4830bee	56736	1204904	8320	32240	31440	0	101107	35040
83.84	23341ca4e4830bee	56736	1205095	8320	32256	31344	0	101107	35040
83.84	23341ca4e4830bee	56736	1205276	8320	32256	31344	0	101111	35040
83.84	23341ca4e4830bee	56736	1205468	8320	32256	31344	0	101113	35040
83.84	23341ca4e4830bee	56736	1205659	8320	32256	31344	0	101105	34960
83.84	23341ca4e4830bee	56736	1205850	8320	32256	31392	0	101105	34960
83.84	23341ca4e4830bee	56736	1206041	8320	32256	31392	0	101105	34960
83.84	23341ca4e4830bee	56736	1206281	8320	32256	31392	0	101105	34960
83.84	23341ca4e4830bee	56736	1206472	8320	32256	31408	0	101101	35280
83.84	23341ca4e4830bee	56736	1206663	8320	32256	31408	0	101105	35280
83.84	23341ca4e4830bee	56736	1206854	8320	32256	31408	0	101105	35280
83.84	23341ca4e4830bee	56736	1207046	8320	32256	31408	0	101111	35280
83.84	23341ca4e4830bee	56736	1207227	8320	32208	31408	0	101109	34992
83.84	23341ca4e4830bee	56736	1207418	8320	32208	31408	0	101115	34992
83.84	23341ca4e4830bee	56736	1207609	8320	32208	31408	0	101107	34992
83.84	23341ca4e4830bee	56736	1207800	8320	32208	31408	0	101105	35024
83.84	23341ca4e4830bee	56736	1207992	8320	32208	31360	0	101111	35024
83.84	23341ca4e4830bee	56736	1208183	8320	32208	31360	0	101113	35024
83.84	23341ca4e4830bee	56736	1208374	8320	32208	31360	0	101103	35024
83.84	23341ca4e4830bee	56736	1208565	8320	32208	31392	0	101113	35344
83.84	23341ca4e4830bee	56736	1208756	8320	32208	31392	0	101111	35344
83.84	23341ca4e4830bee	56736	1208937	8320	32208	31392	0	101111	35344
83.84	23341ca4e4830bee	56736	1209128	8320	32208	31392	0	101109	35344
83.84	23341ca4e4830bee	56736	1209320	8320	32240	31392	0	101111	35056
83.84	23341ca4e4830bee	56736	1209511	8320	32240	31392	0	101115	35056
83.84	23341ca4e4830bee	56736	1209702	8320	32240	31392	0	101109	35056
83.84	23341ca4e4830bee	56736	1209893	8320	32240	31392	0	101119	35056
83.84	23341ca4e4830bee	56736	1210156	8320	32240	31408	0	101115	35040
83.84	23341ca4e4830bee	56736	1210337	8320	32240	31408	0	101105	35040
83.84	23341ca4e4830bee	56736	1210528	8320	32240	31408	0	101111	35040
83.84	23341ca4e4830bee	56736	1210719	8320	32208	31408	0	101113	35296
83.84	23341ca4e4830bee	56736	1210910	8320	32208	31392	0	101111	35296
83.84	23341ca4e4830bee	56736	1211101	8320	32208	31392	0	101117	35296
83.84	23341ca4e4830bee	56736	1211292	8320	32208	31392	0	101113	35296
83.84	23341ca4e4830bee	56736	1211483	8320	32240	31360	0	101117	35280
83.84	23341ca4e4830bee	56736	1211675	8320	32240	31360	0	101105	35280
83.84	23341ca4e4830bee	56736	1211866	8320	32240	31360	0	101109	35280
83.84	23341ca4e4830bee	56736	1212057	8320	32240	31360	0	101117	35280
83.84	23341ca4e4830bee	56736	1212248	8320	32256	31392	0	101105	35312
83.84	23341ca4e4830bee	56736	1212439	8320	32256	31392	0	101105	35312
83.84	23341ca4e4830bee	56736	1212630	8320	32256	31392	0	101115	35312
83.84	23341ca4e4830bee	56736	1212822	8320	32256	31392	0	101103	35312
83.84	23341ca4e4830bee	56736	1213013	8320	32240	31376	0	101099	35296
83.84	23341ca4e4830bee	56736	1213204	8320	32240	31376	0	101109	35296
83.84	23341ca4e4830bee	56736	1213395	8320	32240	31376	0	101107	35296
84.02	23341ca4e4830bee	56736	1213586	8320	32240	31376	0	101113	35248
83.84	23341ca4e4830bee	56736	1213768	8320	32288	31360	0	101113	35248
83.84	23341ca4e4830bee	56736	1214002	8320	32288	31360	0	101115	35248
83.84	23341ca4e4830bee	56736	1214193	8320	32288	31360	0	101109	35248
83.84	23341ca4e4830bee	56736	1214384	8320	32272	31376	0	101113	35120
84.02	23341ca4e4830bee	56736	1214575	8320	32272	31376	0	101113	35120
84.02	23341ca4e4830bee	56736	1214766	8320	32272	31376	0	101111	35120
83.84	23341ca4e4830bee	56736	1214957	8320	32272	31376	0	101103	35120
84.02	23341ca4e4830bee	56736	1215148	8320	32224	31408	0	101117	35264
84.02	23341ca4e4830bee	56736	1215339	8320	32224	31408	0	101117	35264
84.02	23341ca4e4830bee	56736	1215530	8320	32224	31408	0	101111	35264
84.02	23341ca4e4830bee	56736	1215721	8320	32224	31408	0	101111	35264
84.02	23341ca4e4830bee	56736	1215913	8320	32208	31408	0	101105	34960
84.02	23341ca4e4830bee	56736	1216107	8320	32208	31408	0	101105	34960
84.02	23341ca4e4830bee	56736	1216288	8320	32208	31408	0	101107	34960
84.02	23341ca4e4830bee	56736	1216479	8320	32208	31408	0	101105	35120
84.02	23341ca4e4830bee	56736	1216670	8320	32256	31360	0	101109	35120
84.02	23341ca4e4830bee	56736	1216861	8320	32256	31360	0	101111	35120
84.02	23341ca4e4830bee	56736	1217053	8320	32256	31360	0	101113	35120
84.02	23341ca4e4830bee	56736	1217244	8320	32256	31360	0	101105	35344
84.02	23341ca4e4830bee	56736	1217435	8320	32256	31360	0	101117	35344
84.02	23341ca4e4830bee	56736	1217626	8320	32256	31360	0	101115	35344
84.02	23341ca4e4830bee	56736	1217860	8320	32256	31360	0	101109	35344
84.02	23341ca4e4830bee	56736	1218051	8320	32224	31376	0	101111	35344
84.02	23341ca4e4830bee	56736	1218242	8320	32224	31376	0	101109	35344
84.02	23341ca4e4830bee	56736	1218433	8320	32224	31376	0	101107	35344
84.02	23341ca4e4830bee	56736	1218624	8320	32224	31376	0	101113	35344
84.02	23341ca4e4830bee	56736	1218815	8320	32256	31408	0	101107	35344
84.02	23341ca4e4830bee	56736	1219014	8320	32256	31408	0	101117	35344
84.02	23341ca4e4830bee	56736	1219205	8320	32256	31408	0	101109	35344
84.02	23341ca4e4830bee	56736	1219396	8320	32240	31392	0	101117	35296
84.02	23341ca4e4830bee	56736	1219587	8320	32240	31392	0	101113	35296
84.02	23341ca4e4830bee	56736	1219768	8320	32240	31392	0	101113	35296
84.02	23341ca4e4830bee	56736	1219960	8320	32240	31392	0	101111	35296
84.02	23341ca4e4830bee	56736	1220151	8320	32256	31392	0	101113	34976
84.02	23341ca4e4830bee	56736	1220342	8320	32256	31392	0	101103	34976
84.02	23341ca4e4830bee	56736	1220533	8320	32256	31392	0	101109	34976
84.02	23341ca4e4830bee	56736	1220724	8320	32256	31392	0	101119	34976
84.02	23341ca4e4830bee	56736	1220915	8320	32272	31408	0	101119	35088
84.02	23341ca4e4830bee	56736	1221107	8320	32272	31408	0	101105	35088
84.02	23341ca4e4830bee	56736	1221298	8320	32272	31408	0	101111	35088
84.02	23341ca4e4830bee	56736	1221489	8448	32272	31408	0	101115	35088