Digit_temp	id	light	timestamp	acc_z	acc_y	acc_x	motion	pressure	humid
84.2	23341ca4e4830bee	56976	2357698	8320	32224	31424	0	101119	34992
84.2	23341ca4e4830bee	56976	2357900	8320	32224	31424	0	101113	34992
84.2	23341ca4e4830bee	56976	2358091	8320	32224	31424	0	101109	34992
84.2	23341ca4e4830bee	56976	2358282	8320	32224	31424	0	101107	34992
84.2	23341ca4e4830bee	56992	2358473	8320	32224	31392	0	101119	35168
84.2	23341ca4e4830bee	56992	2358664	8320	32224	31392	0	101111	35168
84.2	23341ca4e4830bee	56992	2358845	8320	32224	31392	0	101111	35168
84.2	23341ca4e4830bee	56992	2359036	8320	32224	31392	0	101107	35168
84.2	23341ca4e4830bee	56976	2359227	8320	32224	31408	0	101111	34960
84.2	23341ca4e4830bee	56976	2359418	8320	32224	31408	0	101115	34960
84.2	23341ca4e4830bee	56976	2359609	8320	32224	31408	0	101111	34960
84.2	23341ca4e4830bee	56992	2359800	8320	32224	31408	0	101105	35120
84.2	23341ca4e4830bee	56992	2359991	8320	32224	31376	0	101111	35120
84.2	23341ca4e4830bee	56992	2360182	8320	32224	31376	0	101109	35120
84.2	23341ca4e4830bee	56992	2360373	8320	32224	31376	0	101107	35120
84.2	23341ca4e4830bee	56992	2360564	8320	32224	31408	0	101117	35056
84.2	23341ca4e4830bee	56992	2360746	8320	32224	31408	0	101105	35056
84.2	23341ca4e4830bee	56992	2360937	8320	32224	31408	0	101117	35056
84.2	23341ca4e4830bee	56992	2361128	8320	32224	31408	0	101107	35056
84.2	23341ca4e4830bee	56976	2361319	8320	32240	31376	0	101111	35280
84.2	23341ca4e4830bee	56976	2361561	8320	32240	31376	0	101117	35280
84.2	23341ca4e4830bee	56976	2361752	8320	32240	31376	0	101113	35280
84.2	23341ca4e4830bee	56976	2361944	8320	32240	31376	0	101117	35392
84.2	23341ca4e4830bee	56992	2362135	8320	32208	31376	0	101119	35392
84.2	23341ca4e4830bee	56992	2362316	8320	32208	31376	0	101113	35392
84.2	23341ca4e4830bee	56992	2362507	8320	32208	31376	0	101113	35392
84.2	23341ca4e4830bee	56992	2362698	8320	32208	31376	0	101095	35232
84.2	23341ca4e4830bee	56992	2362889	8320	32240	31392	0	101117	35232
84.2	23341ca4e4830bee	56992	2363080	8320	32240	31392	0	101103	35232
84.2	23341ca4e4830bee	56992	2363271	8320	32240	31392	0	101105	35232
84.2	23341ca4e4830bee	56976	2363462	8320	32224	31408	0	101113	34976
84.2	23341ca4e4830bee	56976	2363654	8320	32224	31408	0	101109	34976
84.2	23341ca4e4830bee	56976	2363845	8320	32224	31408	0	101109	34976
84.2	23341ca4e4830bee	56976	2364026	8320	32224	31408	0	101111	34976
84.2	23341ca4e4830bee	56992	2364217	8320	32240	31424	0	101109	35072
84.2	23341ca4e4830bee	56992	2364408	8320	32240	31424	0	101119	35072
84.2	23341ca4e4830bee	56992	2364599	8320	32240	31424	0	101123	35072
84.2	23341ca4e4830bee	56992	2364791	8320	32240	31424	0	101113	35072
84.2	23341ca4e4830bee	56992	2364982	8320	32256	31376	0	101101	34960
84.2	23341ca4e4830bee	56992	2365173	8320	32256	31376	0	101113	34960
84.2	23341ca4e4830bee	56992	2365405	8320	32256	31376	0	101111	34960
84.2	23341ca4e4830bee	56976	2365586	8320	32256	31376	0	101113	34992
84.2	23341ca4e4830bee	56976	2365777	8320	32224	31408	0	101113	34992
84.2	23341ca4e4830bee	56976	2365968	8320	32224	31408	0	101123	34992
84.2	23341ca4e4830bee	56976	2366159	8320	32224	31408	0	101113	34992
84.2	23341ca4e4830bee	56992	2366350	8320	32240	31392	0	101119	34896
84.2	23341ca4e4830bee	56992	2366541	8320	32240	31392	0	101115	34896
84.2	23341ca4e4830bee	56992	2366732	8320	32240	31392	0	101111	34896
84.2	23341ca4e4830bee	56992	2366923	8320	32240	31392	0	101107	34896
84.2	23341ca4e4830bee	56992	2367114	8320	32240	31408	0	101103	35296
84.2	23341ca4e4830bee	56992	2367306	8320	32240	31408	0	101107	35296
84.2	23341ca4e4830bee	56992	2367497	8320	32240	31408	0	101107	35296
84.2	23341ca4e4830bee	56992	2367688	8192	32240	31408	0	101119	35296
84.2	23341ca4e4830bee	56992	2367879	8192	32240	31408	0	101119	35072
84.2	23341ca4e4830bee	56992	2368070	8192	32240	31408	0	101117	35072
84.2	23341ca4e4830bee	56992	2368261	8192	32240	31408	0	101113	35072
84.2	23341ca4e4830bee	56992	2368453	8320	32240	31408	0	101105	35024
84.2	23341ca4e4830bee	56992	2368644	8320	32272	31376	0	101117	35024
84.2	23341ca4e4830bee	56992	2368835	8320	32272	31376	0	101117	35024
84.2	23341ca4e4830bee	56992	2369016	8320	32272	31376	0	101115	35024
84.2	23341ca4e4830bee	56992	2369263	8320	32288	31408	0	101121	35088
84.2	23341ca4e4830bee	56992	2369454	8320	32288	31408	0	101111	35088
84.2	23341ca4e4830bee	56992	2369645	8320	32288	31408	0	101109	35088
84.2	23341ca4e4830bee	56992	2369826	8320	32288	31408	0	101121	35088
84.2	23341ca4e4830bee	56992	2370017	8320	32288	31408	0	101113	35024
84.2	23341ca4e4830bee	56992	2370208	8320	32288	31408	0	101121	35024
84.2	23341ca4e4830bee	56992	2370419	8320	32288	31408	0	101121	35024
84.2	23341ca4e4830bee	56992	2370610	8320	32288	31408	0	101111	35024
84.2	23341ca4e4830bee	56992	2370801	8320	32240	31408	0	101111	35312
84.2	23341ca4e4830bee	56992	2370993	8320	32240	31408	0	101111	35312
84.2	23341ca4e4830bee	56992	2371184	8320	32240	31408	0	101109	35312
84.2	23341ca4e4830bee	56992	2371375	8320	32208	31408	0	101105	35376
84.2	23341ca4e4830bee	56992	2371571	8320	32208	31392	0	101115	35376
84.2	23341ca4e4830bee	56992	2371762	8320	32208	31392	0	101109	35376
84.2	23341ca4e4830bee	56992	2371953	8320	32208	31392	0	101115	35376
84.2	23341ca4e4830bee	56992	2372144	8320	32208	31408	0	101117	34960
84.2	23341ca4e4830bee	56992	2372335	8320	32208	31408	0	101113	34960
84.2	23341ca4e4830bee	56992	2372526	8320	32208	31408	0	101111	34960
84.2	23341ca4e4830bee	56992	2372718	8320	32208	31408	0	101111	34960
84.2	23341ca4e4830bee	56992	2372909	8320	32240	31408	0	101111	35248
84.2	23341ca4e4830bee	56992	2373155	8320	32240	31408	0	101109	35248
84.2	23341ca4e4830bee	56992	2373346	8320	32240	31408	0	101117	35248
84.2	23341ca4e4830bee	56992	2373533	8320	32240	31408	0	101115	35296
84.2	23341ca4e4830bee	56992	2373724	8320	32224	31408	0	101107	35296
84.2	23341ca4e4830bee	56992	2373915	8320	32224	31408	0	101115	35296
84.2	23341ca4e4830bee	56992	2374106	8320	32224	31408	0	101111	35296
84.2	23341ca4e4830bee	56992	2374287	8320	32240	31392	0	101115	35360
84.2	23341ca4e4830bee	56992	2374478	8320	32240	31392	0	101109	35360
84.2	23341ca4e4830bee	56992	2374670	8320	32240	31392	0	101115	35360
84.2	23341ca4e4830bee	56992	2374861	8320	32240	31392	0	101115	35360
84.2	23341ca4e4830bee	56992	2375052	8320	32224	31392	0	101107	35088
84.2	23341ca4e4830bee	56992	2375243	8320	32224	31392	0	101117	35088
84.2	23341ca4e4830bee	56992	2375434	8320	32224	31392	0	101119	35088
84.2	23341ca4e4830bee	56992	2375625	8320	32224	31392	0	101115	35088
84.2	23341ca4e4830bee	56992	2375816	8320	32224	31408	0	101115	34976
84.2	23341ca4e4830bee	56992	2375998	8320	32224	31408	0	101113	34976
84.2	23341ca4e4830bee	56992	2376189	8320	32224	31408	0	101115	34976
84.2	23341ca4e4830bee	56992	2376380	8320	32224	31408	0	101109	34976
84.2	23341ca4e4830bee	56992	2376582	8320	32224	31376	0	101115	35040
84.2	23341ca4e4830bee	56992	2376774	8320	32224	31376	0	101119	35040
84.2	23341ca4e4830bee	56992	2376996	8320	32224	31376	0	101109	35040
84.2	23341ca4e4830bee	56992	2377187	8320	32240	31424	0	101119	35248
84.2	23341ca4e4830bee	56992	2377368	8320	32240	31424	0	101109	35248
84.2	23341ca4e4830bee	56992	2377563	8320	32240	31424	0	101109	35248
84.2	23341ca4e4830bee	56992	2377754	8320	32240	31424	0	101107	35248
84.2	23341ca4e4830bee	56992	2377945	8320	32240	31392	0	101107	35264
84.2	23341ca4e4830bee	56992	2378137	8320	32240	31392	0	101107	35264
84.2	23341ca4e4830bee	56992	2378318	8320	32240	31392	0	101109	35264
84.2	23341ca4e4830bee	56992	2378509	8320	32240	31392	0	101115	35264
84.2	23341ca4e4830bee	56992	2378700	8320	32256	31408	0	101119	35104
84.2	23341ca4e4830bee	56992	2378891	8320	32256	31408	0	101115	35104
84.2	23341ca4e4830bee	56992	2379082	8320	32256	31408	0	101113	35104
84.2	23341ca4e4830bee	56992	2379273	8320	32256	31408	0	101113	35104
84.2	23341ca4e4830bee	56992	2379464	8320	32256	31392	0	101109	35200
84.2	23341ca4e4830bee	56992	2379656	8320	32256	31392	0	101113	35200
84.2	23341ca4e4830bee	56992	2379847	8320	32256	31392	0	101109	35200
84.2	23341ca4e4830bee	56992	2380028	8320	32256	31392	0	101113	35184
84.2	23341ca4e4830bee	56992	2380219	8320	32240	31392	0	101113	35184
84.2	23341ca4e4830bee	56992	2380411	8320	32240	31392	0	101109	35184
84.2	23341ca4e4830bee	56992	2380602	8320	32240	31392	0	101115	35184
84.2	23341ca4e4830bee	56992	2380850	8320	32240	31376	0	101115	35216
84.2	23341ca4e4830bee	56992	2381041	8320	32240	31376	0	101115	35216
84.2	23341ca4e4830bee	56992	2381232	8320	32240	31376	0	101109	35216
84.2	23341ca4e4830bee	56992	2381423	8320	32240	31376	0	101115	35216
84.2	23341ca4e4830bee	56992	2381614	8320	32256	31424	0	101119	35264
84.2	23341ca4e4830bee	56992	2381805	8320	32256	31424	0	101119	35264
84.2	23341ca4e4830bee	56992	2381996	8320	32256	31424	0	101107	35264
84.2	23341ca4e4830bee	56992	2382187	8320	32256	31424	0	101113	35248
84.2	23341ca4e4830bee	56992	2382368	8320	32224	31376	0	101117	35248
84.2	23341ca4e4830bee	56992	2382559	8320	32224	31376	0	101107	35248
84.2	23341ca4e4830bee	56992	2382750	8320	32224	31376	0	101125	35248
84.2	23341ca4e4830bee	56992	2382942	8320	32256	31376	0	101115	35008
84.2	23341ca4e4830bee	56992	2383133	8320	32256	31392	0	101109	35008
84.2	23341ca4e4830bee	56992	2383324	8320	32256	31392	0	101119	35008
84.2	23341ca4e4830bee	56992	2383515	8320	32256	31392	0	101113	35008
84.2	23341ca4e4830bee	56992	2383706	8320	32208	31360	0	101109	35248
84.2	23341ca4e4830bee	56992	2383897	8320	32208	31360	0	101113	35248
84.2	23341ca4e4830bee	56992	2384079	8320	32208	31360	0	101119	35248
84.2	23341ca4e4830bee	56992	2384270	8320	32208	31360	0	101109	35248
84.2	23341ca4e4830bee	56992	2384461	8320	32240	31392	0	101109	35232
84.2	23341ca4e4830bee	56992	2384708	8320	32240	31392	0	101113	35232
84.2	23341ca4e4830bee	56992	2384889	8320	32240	31392	0	101115	35232
84.2	23341ca4e4830bee	56992	2385080	8320	32240	31392	0	101103	35312
84.2	23341ca4e4830bee	56992	2385271	8320	32272	31408	0	101103	35312
84.2	23341ca4e4830bee	56992	2385462	8320	32272	31408	0	101113	35312
84.2	23341ca4e4830bee	56992	2385653	8320	32272	31408	0	101121	35312
84.2	23341ca4e4830bee	56992	2385844	8320	32224	31392	0	101119	35248
84.2	23341ca4e4830bee	56992	2386036	8320	32224	31392	0	101117	35248
84.2	23341ca4e4830bee	56992	2386227	8320	32224	31392	0	101109	35248
84.2	23341ca4e4830bee	56992	2386418	8320	32224	31392	0	101111	35248
84.2	23341ca4e4830bee	56992	2386599	8320	32256	31408	0	101117	35200
84.2	23341ca4e4830bee	56992	2386790	8320	32256	31408	0	101117	35200
84.2	23341ca4e4830bee	56992	2386981	8320	32256	31408	0	101115	35200
84.2	23341ca4e4830bee	56992	2387172	8320	32256	31408	0	101117	35200
84.2	23341ca4e4830bee	56992	2387363	8320	32256	31408	0	101115	34992
84.2	23341ca4e4830bee	56992	2387555	8320	32256	31408	0	101105	34992
84.2	23341ca4e4830bee	56992	2387746	8320	32256	31408	0	101111	34992
84.2	23341ca4e4830bee	56992	2387937	8320	32256	31408	0	101111	34992
84.2	23341ca4e4830bee	56992	2388128	8320	32240	31392	0	101119	35104
84.2	23341ca4e4830bee	56992	2388320	8320	32240	31392	0	101115	35104
84.2	23341ca4e4830bee	56992	2388551	8320	32240	31392	0	101111	35104
84.2	23341ca4e4830bee	56992	2388743	8320	32240	31424	0	101113	35072
84.2	23341ca4e4830bee	56992	2388934	8320	32240	31424	0	101107	35072
84.2	23341ca4e4830bee	56992	2389125	8320	32240	31424	0	101115	35072
84.2	23341ca4e4830bee	56992	2389316	8320	32240	31424	0	101119	35072
84.2	23341ca4e4830bee	56992	2389507	8320	32224	31408	0	101121	35264
84.2	23341ca4e4830bee	56992	2389698	8320	32224	31408	0	101115	35264
84.2	23341ca4e4830bee	56992	2389879	8320	32224	31408	0	101113	35264
84.2	23341ca4e4830bee	56992	2390070	8320	32224	31408	0	101107	35264
84.2	23341ca4e4830bee	56992	2390261	8320	32272	31408	0	101123	35248
84.2	23341ca4e4830bee	56992	2390452	8320	32272	31408	0	101117	35248
84.2	23341ca4e4830bee	56992	2390643	8320	32272	31408	0	101117	35248
84.2	23341ca4e4830bee	56992	2390835	8320	32272	31408	0	101115	35248
84.2	23341ca4e4830bee	56992	2391026	8320	32208	31424	0	101119	35200
84.2	23341ca4e4830bee	56992	2391217	8320	32208	31424	0	101113	35200
84.2	23341ca4e4830bee	56992	2391409	8320	32208	31424	0	101113	35200
84.2	23341ca4e4830bee	56992	2391600	8320	32208	31424	0	101115	35136
84.2	23341ca4e4830bee	56992	2391791	8320	32208	31392	0	101117	35136
84.2	23341ca4e4830bee	56992	2391982	8320	32208	31392	0	101105	35136
84.2	23341ca4e4830bee	56992	2392174	8320	32208	31392	0	101123	35136
84.2	23341ca4e4830bee	56992	2392417	8320	32288	31408	0	101123	35040
84.2	23341ca4e4830bee	56992	2392608	8320	32288	31408	0	101113	35040
84.38	23341ca4e4830bee	56992	2392799	8320	32288	31408	0	101111	35040
84.38	23341ca4e4830bee	56992	2392980	8320	32288	31408	0	101111	35040
84.2	23341ca4e4830bee	56992	2393171	8320	32240	31408	0	101121	34960
84.2	23341ca4e4830bee	56992	2393362	8320	32240	31408	0	101111	34960
84.38	23341ca4e4830bee	56992	2393553	8320	32240	31408	0	101109	34960
84.38	23341ca4e4830bee	56992	2393744	8320	32240	31408	0	101109	35024
84.38	23341ca4e4830bee	56992	2393935	8320	32272	31408	0	101111	35024
84.38	23341ca4e4830bee	56992	2394126	8320	32272	31408	0	101105	35024
84.38	23341ca4e4830bee	56992	2394317	8320	32272	31408	0	101111	35024
84.38	23341ca4e4830bee	56992	2394508	8320	32240	31408	0	101113	34944
84.38	23341ca4e4830bee	56992	2394690	8320	32240	31408	0	101117	34944
84.38	23341ca4e4830bee	56992	2394881	8320	32240	31408	0	101109	34944
84.38	23341ca4e4830bee	56992	2395072	8320	32240	31408	0	101115	34944
84.38	23341ca4e4830bee	56992	2395263	8320	32224	31408	0	101103	35296
84.38	23341ca4e4830bee	56992	2395454	8320	32224	31408	0	101121	35296
84.38	23341ca4e4830bee	56992	2395645	8320	32224	31408	0	101115	35296
84.38	23341ca4e4830bee	56992	2395837	8320	32224	31408	0	101109	35296
84.38	23341ca4e4830bee	56992	2396028	8320	32240	31392	0	101115	35200
84.38	23341ca4e4830bee	56992	2396250	8320	32240	31392	0	101113	35200
84.2	23341ca4e4830bee	56992	2396441	8320	32240	31392	0	101111	35200
84.38	23341ca4e4830bee	56992	2396632	8320	32240	31392	0	101109	34960
84.38	23341ca4e4830bee	56992	2396823	8320	32208	31408	0	101109	34960
84.38	23341ca4e4830bee	56992	2397014	8320	32208	31408	0	101121	34960
84.38	23341ca4e4830bee	56992	2397205	8320	32208	31408	0	101115	34960
84.38	23341ca4e4830bee	56992	2397396	8320	32224	31392	0	101109	34944
84.38	23341ca4e4830bee	56992	2397587	8320	32224	31392	0	101107	34944
84.38	23341ca4e4830bee	56992	2397778	8320	32224	31392	0	101105	34944
84.2	23341ca4e4830bee	56992	2397959	8320	32224	31392	0	101101	34944
84.38	23341ca4e4830bee	56992	2398151	8320	32224	31392	0	101121	35216
84.38	23341ca4e4830bee	56992	2398342	8320	32224	31392	0	101111	35216
84.38	23341ca4e4830bee	56992	2398533	8320	32224	31392	0	101115	35216
84.38	23341ca4e4830bee	56992	2398724	8320	32224	31392	0	101105	35216
84.38	23341ca4e4830bee	56992	2398915	8320	32224	31424	0	101115	35088
84.38	23341ca4e4830bee	56992	2399107	8320	32224	31424	0	101103	35088
84.38	23341ca4e4830bee	56992	2399298	8320	32224	31424	0	101119	35088
84.38	23341ca4e4830bee	56992	2399489	8320	32224	31424	0	101121	35088
84.38	23341ca4e4830bee	56992	2399670	8320	32240	31408	0	101119	34928
84.38	23341ca4e4830bee	56992	2399861	8320	32240	31408	0	101117	34928
84.38	23341ca4e4830bee	56992	2400093	8320	32240	31408	0	101109	34928
84.38	23341ca4e4830bee	56992	2400284	8320	32240	31376	0	101119	35280
84.38	23341ca4e4830bee	56992	2400475	8320	32240	31376	0	101109	35280
84.38	23341ca4e4830bee	56992	2400667	8320	32240	31376	0	101115	35280
84.38	23341ca4e4830bee	56992	2400858	8320	32240	31376	0	101109	35280
84.38	23341ca4e4830bee	56992	2401049	8320	32224	31376	0	101115	35072
84.38	23341ca4e4830bee	56992	2401230	8320	32224	31376	0	101113	35072
84.38	23341ca4e4830bee	56992	2401421	8320	32224	31376	0	101113	35072
84.38	23341ca4e4830bee	56992	2401612	8320	32224	31376	0	101115	35072
84.38	23341ca4e4830bee	56992	2401803	8320	32272	31392	0	101115	35264
84.38	23341ca4e4830bee	56992	2401994	8320	32272	31392	0	101113	35264
84.38	23341ca4e4830bee	56992	2402185	8320	32272	31392	0	101119	35264
84.38	23341ca4e4830bee	56992	2402376	8320	32272	31392	0	101113	35264
84.38	23341ca4e4830bee	56992	2402580	8320	32224	31424	0	101113	35056
84.38	23341ca4e4830bee	56992	2402771	8320	32224	31424	0	101113	35056
84.38	23341ca4e4830bee	56992	2402962	8320	32224	31424	0	101113	35056
84.38	23341ca4e4830bee	56976	2403154	8320	32224	31424	0	101123	35312
84.38	23341ca4e4830bee	56976	2403345	8320	32192	31424	0	101115	35312
84.38	23341ca4e4830bee	56976	2403536	8320	32192	31424	0	101119	35312
84.38	23341ca4e4830bee	56976	2403728	8320	32192	31424	0	101119	35312
84.38	23341ca4e4830bee	56992	2403961	8320	32224	31408	0	101123	35008
84.38	23341ca4e4830bee	56992	2404152	8320	32224	31408	0	101113	35008
84.38	23341ca4e4830bee	56992	2404343	8320	32224	31408	0	101109	35008
84.38	23341ca4e4830bee	56992	2404541	8320	32224	31408	0	101113	35008
84.38	23341ca4e4830bee	56992	2404732	8320	32256	31392	0	101111	35120
84.38	23341ca4e4830bee	56992	2404923	8320	32256	31392	0	101113	35120
84.38	23341ca4e4830bee	56992	2405115	8320	32256	31392	0	101111	35120
84.38	23341ca4e4830bee	56992	2405306	8320	32256	31392	0	101115	35264
84.38	23341ca4e4830bee	56992	2405497	8320	32224	31424	0	101115	35264
84.38	23341ca4e4830bee	56992	2405688	8320	32224	31424	0	101119	35264
84.38	23341ca4e4830bee	56992	2405879	8320	32224	31424	0	101109	35264
84.38	23341ca4e4830bee	56992	2406070	8320	32272	31392	0	101103	34976
84.2	23341ca4e4830bee	56992	2406261	8320	32272	31392	0	101107	34976
84.2	23341ca4e4830bee	56992	2406452	8320	32272	31392	0	101101	34976
84.38	23341ca4e4830bee	56992	2406644	8320	32272	31392	0	101111	34976
84.2	23341ca4e4830bee	56992	2406835	8320	32240	31392	0	101105	35344
84.38	23341ca4e4830bee	56992	2407026	8320	32240	31392	0	101109	35344
84.38	23341ca4e4830bee	56992	2407217	8320	32240	31392	0	101109	35344
84.38	23341ca4e4830bee	56992	2407409	8320	32240	31392	0	101117	35344
84.2	23341ca4e4830bee	56976	2407590	8320	32272	31376	0	101111	35280
84.38	23341ca4e4830bee	56976	2407835	8320	32272	31376	0	101115	35280
84.2	23341ca4e4830bee	56976	2408026	8320	32272	31376	0	101109	35280
84.2	23341ca4e4830bee	56992	2408217	8320	32240	31376	0	101113	34992
84.2	23341ca4e4830bee	56992	2408409	8320	32240	31408	0	101117	34992
84.2	23341ca4e4830bee	56992	2408607	8320	32240	31408	0	101111	34992
84.2	23341ca4e4830bee	56992	2408798	8320	32240	31408	0	101117	34992
84.2	23341ca4e4830bee	56992	2408989	8320	32208	31344	0	101113	35152
84.2	23341ca4e4830bee	56992	2409180	8320	32208	31344	0	101113	35152
84.2	23341ca4e4830bee	56992	2409371	8320	32208	31344	0	101117	35152
84.2	23341ca4e4830bee	56992	2409573	8320	32208	31344	0	101111	35152
84.2	23341ca4e4830bee	56976	2409764	8320	32272	31360	0	101107	35312
84.2	23341ca4e4830bee	56976	2409956	8320	32272	31360	0	101119	35312
84.2	23341ca4e4830bee	56976	2410147	8320	32272	31360	0	101113	35312
84.2	23341ca4e4830bee	56976	2410338	8320	32272	31360	0	101117	35312
84.2	23341ca4e4830bee	56992	2410529	8320	32256	31408	0	101113	34976
84.2	23341ca4e4830bee	56992	2410720	8320	32256	31408	0	101107	34976
84.2	23341ca4e4830bee	56992	2410901	8320	32256	31408	0	101111	34976
84.2	23341ca4e4830bee	56992	2411093	8320	32256	31408	0	101111	34960
84.2	23341ca4e4830bee	56992	2411284	8320	32240	31424	0	101107	34960
84.2	23341ca4e4830bee	56992	2411475	8320	32240	31424	0	101101	34960
84.2	23341ca4e4830bee	56992	2411719	8320	32240	31424	0	101117	34960
84.2	23341ca4e4830bee	56976	2411910	8320	32256	31408	0	101107	34992
84.2	23341ca4e4830bee	56976	2412091	8320	32256	31408	0	101107	34992
84.38	23341ca4e4830bee	56976	2412282	8320	32256	31408	0	101111	34992
84.2	23341ca4e4830bee	56976	2412473	8320	32256	31408	0	101105	34992
84.38	23341ca4e4830bee	56992	2412665	8320	32240	31392	0	101111	34960
84.2	23341ca4e4830bee	56992	2412856	8320	32240	31392	0	101119	34960
84.2	23341ca4e4830bee	56992	2413047	8320	32240	31392	0	101111	34960
84.2	23341ca4e4830bee	56992	2413238	8320	32240	31392	0	101101	35136
84.2	23341ca4e4830bee	56992	2413429	8320	32256	31408	0	101107	35136
84.38	23341ca4e4830bee	56992	2413620	8320	32256	31408	0	101117	35136
84.38	23341ca4e4830bee	56992	2413801	8320	32256	31408	0	101111	35136
84.38	23341ca4e4830bee	56976	2413992	8320	32240	31408	0	101115	35344
84.2	23341ca4e4830bee	56976	2414183	8320	32240	31424	0	101117	35344
84.2	23341ca4e4830bee	56976	2414375	8320	32240	31424	0	101107	35344
84.38	23341ca4e4830bee	56976	2414566	8320	32240	31424	0	101119	35344
84.38	23341ca4e4830bee	56992	2414757	8192	32208	31408	0	101111	35264
84.38	23341ca4e4830bee	56992	2414948	8192	32208	31408	0	101111	35264
84.38	23341ca4e4830bee	56992	2415139	8192	32208	31408	0	101105	35264
84.38	23341ca4e4830bee	56992	2415331	8192	32208	31408	0	101115	35264
84.38	23341ca4e4830bee	56992	2415563	8320	32208	31392	0	101111	35024
84.38	23341ca4e4830bee	56992	2415754	8320	32208	31392	0	101111	35024
84.38	23341ca4e4830bee	56992	2415945	8320	32208	31392	0	101115	35024
84.38	23341ca4e4830bee	56992	2416136	8320	32208	31392	0	101115	34992
84.38	23341ca4e4830bee	56992	2416327	8320	32224	31408	0	101109	34992
84.38	23341ca4e4830bee	56992	2416518	8320	32224	31408	0	101109	34992
84.38	23341ca4e4830bee	56992	2416710	8320	32224	31408	0	101109	34992
84.38	23341ca4e4830bee	57008	2416901	8320	32208	31408	0	101107	35216
84.38	23341ca4e4830bee	57008	2417082	8320	32208	31408	0	101119	35216
84.38	23341ca4e4830bee	57008	2417273	8320	32208	31408	0	101113	35216
84.38	23341ca4e4830bee	57008	2417464	8320	32208	31408	0	101113	35216
84.38	23341ca4e4830bee	57120	2417655	8320	32208	31424	0	101115	35024
84.38	23341ca4e4830bee	57120	2417847	8320	32208	31424	0	101113	35024
84.38	23341ca4e4830bee	57120	2418038	8320	32208	31424	0	101121	35024
84.38	23341ca4e4830bee	57120	2418229	8320	32208	31424	1	101107	35024
84.38	23341ca4e4830bee	57360	2418420	8320	32256	31408	1	101105	35216
84.38	23341ca4e4830bee	57360	2418611	8320	32256	31408	1	101115	35216
84.38	23341ca4e4830bee	57360	2418792	8320	32256	31408	1	101105	35216
84.38	23341ca4e4830bee	57360	2418984	8320	32256	31408	1	101115	35216
84.38	23341ca4e4830bee	57808	2419175	8320	32256	31376	1	101115	34992
84.2	23341ca4e4830bee	57808	2419418	8320	32256	31376	1	101109	34992
84.2	23341ca4e4830bee	57808	2419609	8320	32256	31376	1	101103	34992
84.38	23341ca4e4830bee	57824	2419800	8320	32256	31376	1	101109	35120
84.2	23341ca4e4830bee	57824	2419991	8320	32256	31376	0	101105	35120
84.2	23341ca4e4830bee	57824	2420182	8320	32256	31376	0	101111	35120
84.38	23341ca4e4830bee	57824	2420373	8320	32256	31376	1	101121	35120
84.2	23341ca4e4830bee	57008	2420564	8320	32240	31360	0	101117	34960
84.2	23341ca4e4830bee	57008	2420755	8320	32240	31360	0	101105	34960
84.2	23341ca4e4830bee	57008	2420946	8320	32240	31360	0	101107	34960
84.2	23341ca4e4830bee	57008	2421137	8320	32240	31360	0	101113	34960
84.2	23341ca4e4830bee	57008	2421328	8320	32256	31376	0	101107	34992
84.2	23341ca4e4830bee	57008	2421520	8320	32256	31376	0	101113	34992
84.2	23341ca4e4830bee	57008	2421711	8320	32256	31376	0	101113	34992
84.2	23341ca4e4830bee	57008	2421902	8320	32256	31376	0	101107	35088
84.2	23341ca4e4830bee	57008	2422093	8320	32224	31376	0	101113	35088
84.2	23341ca4e4830bee	57008	2422284	8320	32224	31376	0	101107	35088
84.2	23341ca4e4830bee	57008	2422475	8320	32224	31376	0	101103	35088
84.2	23341ca4e4830bee	57008	2422667	8320	32240	31376	0	101111	35360
84.2	23341ca4e4830bee	57008	2422858	8320	32240	31440	0	101111	35360
84.2	23341ca4e4830bee	57008	2423049	8320	32240	31440	0	101109	35360
84.2	23341ca4e4830bee	57008	2423283	8320	32240	31440	0	101117	35360
84.2	23341ca4e4830bee	57008	2423474	8320	32240	31392	0	101111	35184
84.2	23341ca4e4830bee	57008	2423665	8320	32240	31392	0	101115	35184
84.2	23341ca4e4830bee	57008	2423856	8320	32240	31392	0	101113	35184
84.2	23341ca4e4830bee	57008	2424047	8320	32240	31392	0	101107	35184
84.2	23341ca4e4830bee	56992	2424238	8320	32272	31392	0	101113	35072
84.2	23341ca4e4830bee	56992	2424429	8320	32272	31392	0	101119	35072
84.2	23341ca4e4830bee	56992	2424620	8320	32272	31392	0	101109	35072
84.2	23341ca4e4830bee	56992	2424811	8320	32272	31392	0	101113	34960
84.2	23341ca4e4830bee	56992	2424992	8320	32256	31408	0	101117	34960
84.2	23341ca4e4830bee	56992	2425184	8320	32256	31408	0	101107	34960
84.2	23341ca4e4830bee	56992	2425375	8320	32256	31408	0	101105	34960
84.2	23341ca4e4830bee	57024	2425566	8320	32240	31392	0	101115	35120
84.2	23341ca4e4830bee	57024	2425757	8320	32240	31392	0	101105	35120
84.2	23341ca4e4830bee	57024	2425948	8320	32240	31392	0	101113	35120
84.02	23341ca4e4830bee	57024	2426139	8320	32240	31392	0	101109	35120
84.02	23341ca4e4830bee	57008	2426331	8320	32224	31424	0	101107	34944
84.02	23341ca4e4830bee	57008	2426522	8320	32224	31424	0	101107	34944
84.02	23341ca4e4830bee	57008	2426703	8320	32224	31424	0	101115	34944
84.02	23341ca4e4830bee	57008	2426894	8320	32224	31424	0	101109	34944
84.02	23341ca4e4830bee	56992	2427129	8320	32224	31408	0	101111	35152
84.02	23341ca4e4830bee	56992	2427320	8320	32224	31408	0	101109	35152
84.02	23341ca4e4830bee	56992	2427511	8320	32224	31408	0	101109	35152
84.02	23341ca4e4830bee	57024	2427702	8192	32224	31408	0	101103	34960
84.02	23341ca4e4830bee	57024	2427893	8192	32240	31408	0	101115	34960
84.02	23341ca4e4830bee	57024	2428085	8192	32240	31408	0	101105	34960
84.02	23341ca4e4830bee	57024	2428276	8192	32240	31408	0	101117	34960
84.02	23341ca4e4830bee	56992	2428467	8320	32256	31392	0	101107	34976
84.02	23341ca4e4830bee	56992	2428658	8320	32256	31392	0	101113	34976
84.02	23341ca4e4830bee	56992	2428849	8320	32256	31392	0	101107	34976
84.02	23341ca4e4830bee	56992	2429040	8320	32256	31392	0	101113	34976
84.02	23341ca4e4830bee	56992	2429231	8320	32224	31392	0	101107	35024
84.02	23341ca4e4830bee	56992	2429423	8320	32224	31392	0	101107	35024
84.02	23341ca4e4830bee	56992	2429614	8320	32224	31392	0	101113	35024
84.02	23341ca4e4830bee	56992	2429805	8320	32224	31392	0	101095	35024
84.02	23341ca4e4830bee	56992	2429996	8320	32224	31376	0	101109	35200
84.02	23341ca4e4830bee	56992	2430187	8320	32224	31376	0	101109	35200
84.02	23341ca4e4830bee	56992	2430398	8320	32224	31376	0	101115	35200
84.02	23341ca4e4830bee	56992	2430590	8320	32224	31376	0	101125	35136
84.02	23341ca4e4830bee	56992	2430781	8320	32224	31392	0	101119	35136
84.02	23341ca4e4830bee	56992	2431012	8320	32224	31392	0	101111	35136
84.02	23341ca4e4830bee	56992	2431193	8320	32224	31392	0	101109	35136
84.02	23341ca4e4830bee	56992	2431384	8320	32224	31376	0	101111	35280
84.02	23341ca4e4830bee	56992	2431575	8320	32224	31376	0	101111	35280
84.02	23341ca4e4830bee	56992	2431767	8320	32224	31376	0	101111	35280
84.02	23341ca4e4830bee	56992	2431958	8320	32224	31376	0	101111	35280
84.02	23341ca4e4830bee	56992	2432149	8320	32256	31376	0	101117	35328
84.02	23341ca4e4830bee	56992	2432340	8320	32256	31376	0	101111	35328
84.02	23341ca4e4830bee	56992	2432531	8320	32256	31376	0	101111	35328
84.02	23341ca4e4830bee	56992	2432722	8320	32256	31376	0	101113	35328
83.84	23341ca4e4830bee	56992	2432914	8320	32240	31392	0	101109	35328
83.84	23341ca4e4830bee	56992	2433105	8320	32240	31392	0	101105	35328
83.84	23341ca4e4830bee	56992	2433296	8320	32240	31392	0	101115	35328
83.84	23341ca4e4830bee	56992	2433487	8320	32240	31392	0	101111	35088
83.84	23341ca4e4830bee	56992	2433678	8320	32256	31424	0	101109	35088
83.84	23341ca4e4830bee	56992	2433869	8320	32256	31424	0	101111	35088
83.84	23341ca4e4830bee	56992	2434061	8320	32256	31424	0	101117	35088
83.84	23341ca4e4830bee	56992	2434252	8320	32256	31376	0	101113	35264
83.84	23341ca4e4830bee	56992	2434443	8320	32256	31376	0	101117	35264
83.84	23341ca4e4830bee	56992	2434624	8320	32256	31376	0	101107	35264
83.84	23341ca4e4830bee	56992	2434873	8320	32256	31376	0	101117	35264
83.84	23341ca4e4830bee	56992	2435054	8320	32224	31392	0	101113	35264
83.84	23341ca4e4830bee	56992	2435245	8320	32224	31392	0	101101	35264
83.84	23341ca4e4830bee	56992	2435436	8320	32224	31392	0	101115	35264
83.84	23341ca4e4830bee	56992	2435627	8320	32224	31392	0	101109	35280
83.84	23341ca4e4830bee	56976	2435818	8320	32208	31408	0	101109	35280
83.84	23341ca4e4830bee	56976	2436009	8320	32208	31408	0	101119	35280
83.84	23341ca4e4830bee	56976	2436200	8320	32208	31408	0	101109	35280
83.84	23341ca4e4830bee	56992	2436392	8320	32240	31408	0	101109	34960
83.84	23341ca4e4830bee	56992	2436583	8320	32240	31392	0	101105	34960
83.84	23341ca4e4830bee	56992	2436774	8320	32240	31392	0	101111	34960
83.84	23341ca4e4830bee	56992	2436965	8320	32240	31392	0	101109	34960
83.84	23341ca4e4830bee	56992	2437156	8320	32208	31392	0	101117	35280
83.84	23341ca4e4830bee	56992	2437347	8320	32208	31392	0	101117	35280
83.84	23341ca4e4830bee	56992	2437539	8320	32208	31392	0	101117	35280
83.84	23341ca4e4830bee	56992	2437730	8320	32208	31392	0	101105	35280
83.84	23341ca4e4830bee	56976	2437921	8320	32224	31424	0	101105	35008
83.84	23341ca4e4830bee	56976	2438112	8320	32224	31424	0	101111	35008
83.84	23341ca4e4830bee	56976	2438303	8320	32224	31424	0	101105	35008
83.84	23341ca4e4830bee	56976	2438485	8320	32224	31424	0	101111	35008
83.84	23341ca4e4830bee	56976	2438728	8320	32224	31376	0	101105	35344
83.84	23341ca4e4830bee	56976	2438919	8320	32224	31376	0	101113	35344
83.84	23341ca4e4830bee	56976	2439111	8320	32224	31376	0	101107	35344
83.84	23341ca4e4830bee	56992	2439302	8320	32240	31392	0	101117	35024
83.84	23341ca4e4830bee	56992	2439493	8320	32240	31392	0	101119	35024
83.84	23341ca4e4830bee	56992	2439684	8320	32240	31392	0	101113	35024
83.84	23341ca4e4830bee	56992	2439865	8320	32240	31392	0	101105	35024
83.84	23341ca4e4830bee	56976	2440056	8320	32256	31376	0	101101	35312
83.84	23341ca4e4830bee	56976	2440247	8320	32256	31376	0	101107	35312
83.84	23341ca4e4830bee	56976	2440438	8320	32256	31376	0	101107	35312
83.84	23341ca4e4830bee	56976	2440629	8320	32256	31376	0	101113	35312
83.84	23341ca4e4830bee	56976	2440820	8320	32240	31376	0	101117	35216
83.84	23341ca4e4830bee	56976	2441012	8320	32240	31376	0	101103	35216
83.84	23341ca4e4830bee	56976	2441203	8320	32240	31376	0	101109	35216
83.84	23341ca4e4830bee	56976	2441394	8320	32240	31376	0	101113	35216
83.84	23341ca4e4830bee	56992	2441575	8320	32240	31392	0	101109	35040
83.84	23341ca4e4830bee	56992	2441766	8320	32240	31392	0	101115	35040
83.84	23341ca4e4830bee	56992	2441957	8320	32240	31392	0	101113	35040
83.84	23341ca4e4830bee	56976	2442149	8320	32240	31392	0	101121	35296
83.84	23341ca4e4830bee	56976	2442340	8320	32240	31360	0	101107	35296
83.84	23341ca4e4830bee	56976	2442583	8320	32240	31360	0	101119	35296
83.84	23341ca4e4830bee	56976	2442774	8320	32240	31360	0	101113	35296
83.84	23341ca4e4830bee	56976	2442955	8320	32240	31392	0	101107	35056
83.84	23341ca4e4830bee	56976	2443146	8320	32240	31392	0	101107	35056
83.84	23341ca4e4830bee	56976	2443337	8320	32240	31392	0	101113	35056
83.84	23341ca4e4830bee	56976	2443528	8320	32240	31392	0	101107	35056
83.84	23341ca4e4830bee	56976	2443719	8320	32240	31440	0	101113	35296
83.66	23341ca4e4830bee	56976	2443911	8320	32240	31440	0	101111	35296
83.66	23341ca4e4830bee	56976	2444102	8320	32240	31440	0	101117	35296
83.66	23341ca4e4830bee	56976	2444293	8320	32240	31440	0	101105	35296
83.66	23341ca4e4830bee	56976	2444484	8320	32224	31392	0	101111	35072
83.66	23341ca4e4830bee	56976	2444665	8320	32224	31392	0	101119	35072
83.84	23341ca4e4830bee	56976	2444857	8320	32224	31392	0	101119	35072
83.66	23341ca4e4830bee	56976	2445048	8320	32224	31392	0	101117	35024
83.66	23341ca4e4830bee	56976	2445239	8320	32208	31392	0	101111	35024
83.66	23341ca4e4830bee	56976	2445431	8320	32208	31392	0	101111	35024
83.66	23341ca4e4830bee	56976	2445622	8320	32208	31392	0	101113	35024
83.66	23341ca4e4830bee	56976	2445813	8192	32224	31376	0	101113	34944
83.66	23341ca4e4830bee	56976	2446004	8192	32224	31376	0	101115	34944
83.66	23341ca4e4830bee	56976	2446194	8192	32224	31376	0	101113	34944
83.66	23341ca4e4830bee	56976	2446427	8192	32224	31376	0	101115	34944
83.66	23341ca4e4830bee	56976	2446626	8320	32256	31408	0	101109	34976
83.66	23341ca4e4830bee	56976	2446817	8320	32256	31408	0	101107	34976
83.66	23341ca4e4830bee	56976	2447017	8320	32256	31408	0	101103	34976
83.66	23341ca4e4830bee	56976	2447208	8320	32256	31408	0	101115	35344
83.66	23341ca4e4830bee	56976	2447399	8320	32224	31392	0	101109	35344
83.66	23341ca4e4830bee	56976	2447602	8320	32224	31392	0	101107	35344
83.66	23341ca4e4830bee	56976	2447806	8320	32224	31392	0	101111	35344
83.66	23341ca4e4830bee	56976	2447997	8320	32256	31408	0	101115	35360
83.66	23341ca4e4830bee	56976	2448188	8320	32256	31408	0	101115	35360
83.66	23341ca4e4830bee	56976	2448380	8320	32256	31408	0	101109	35360
83.66	23341ca4e4830bee	56976	2448571	8320	32256	31408	0	101105	35360
83.66	23341ca4e4830bee	56976	2448762	8320	32256	31408	0	101111	35296
83.66	23341ca4e4830bee	56976	2448963	8320	32256	31408	0	101109	35296
83.66	23341ca4e4830bee	56976	2449154	8320	32256	31408	0	101109	35296
83.66	23341ca4e4830bee	56976	2449336	8320	32256	31408	0	101115	35296
83.66	23341ca4e4830bee	56976	2449527	8320	32224	31360	0	101115	35344
83.66	23341ca4e4830bee	56976	2449727	8320	32224	31360	0	101111	35344
83.66	23341ca4e4830bee	56976	2449918	8320	32224	31360	0	101109	35344
83.66	23341ca4e4830bee	56976	2450109	8320	32224	31360	0	101109	35008
83.66	23341ca4e4830bee	56976	2450345	8320	32208	31408	0	101109	35008
83.66	23341ca4e4830bee	56976	2450526	8320	32208	31408	0	101109	35008
83.66	23341ca4e4830bee	56976	2450717	8320	32208	31408	0	101105	35008
83.66	23341ca4e4830bee	56976	2450908	8320	32240	31392	0	101109	35264
83.66	23341ca4e4830bee	56976	2451099	8320	32240	31392	0	101113	35264
83.66	23341ca4e4830bee	56976	2451290	8320	32240	31392	0	101109	35264
83.66	23341ca4e4830bee	56976	2451482	8320	32240	31392	0	101109	35264
83.66	23341ca4e4830bee	56976	2451673	8320	32208	31408	0	101105	35008
83.66	23341ca4e4830bee	56976	2451864	8320	32208	31408	0	101115	35008
83.66	23341ca4e4830bee	56976	2452055	8320	32208	31408	0	101103	35008
83.66	23341ca4e4830bee	56976	2452236	8320	32208	31408	0	101113	35008
83.66	23341ca4e4830bee	56976	2452427	8320	32256	31392	0	101113	35088
83.66	23341ca4e4830bee	56976	2452618	8320	32256	31392	0	101109	35088
83.66	23341ca4e4830bee	56976	2452819	8320	32256	31392	0	101111	35088
83.66	23341ca4e4830bee	56976	2453010	8320	32224	31392	0	101113	35072
83.66	23341ca4e4830bee	56976	2453201	8320	32224	31376	0	101115	35072
83.66	23341ca4e4830bee	56976	2453393	8320	32224	31376	0	101109	35072
83.66	23341ca4e4830bee	56976	2453584	8320	32224	31376	0	101105	35072
83.66	23341ca4e4830bee	56976	2453775	8320	32240	31392	0	101111	35056
83.66	23341ca4e4830bee	56976	2453956	8320	32240	31392	0	101101	35056
83.66	23341ca4e4830bee	56976	2454192	8320	32240	31392	0	101113	35056
83.66	23341ca4e4830bee	56976	2454383	8320	32240	31392	0	101111	35056
83.66	23341ca4e4830bee	56976	2454574	8320	32224	31360	0	101113	35056
83.66	23341ca4e4830bee	56976	2454765	8320	32224	31360	0	101117	35056
83.66	23341ca4e4830bee	56976	2454946	8320	32224	31360	0	101105	35056
83.84	23341ca4e4830bee	56976	2455137	8320	32224	31360	0	101111	35008
83.66	23341ca4e4830bee	56976	2455328	8320	32272	31376	0	101111	35008
83.84	23341ca4e4830bee	56976	2455519	8320	32272	31376	0	101109	35008
83.84	23341ca4e4830bee	56976	2455711	8320	32272	31376	0	101111	35008
83.84	23341ca4e4830bee	56976	2455902	8320	32256	31376	0	101109	35024
83.84	23341ca4e4830bee	56976	2456093	8320	32256	31392	0	101113	35024
83.84	23341ca4e4830bee	56976	2456284	8320	32256	31392	0	101109	35024
83.84	23341ca4e4830bee	56976	2456475	8320	32256	31392	0	101113	35024
83.84	23341ca4e4830bee	56976	2456656	8320	32272	31392	0	101101	34944
83.84	23341ca4e4830bee	56976	2456847	8320	32272	31392	0	101103	34944
83.84	23341ca4e4830bee	56976	2457039	8320	32272	31392	0	101107	34944
83.84	23341ca4e4830bee	56976	2457230	8320	32272	31392	0	101115	34944
83.84	23341ca4e4830bee	56976	2457421	8320	32240	31392	0	101113	35360
83.84	23341ca4e4830bee	56976	2457612	8320	32240	31392	0	101113	35360
83.84	23341ca4e4830bee	56976	2457803	8320	32240	31392	0	101113	35360
83.84	23341ca4e4830bee	56976	2458036	8320	32240	31392	0	101117	35168
83.84	23341ca4e4830bee	56976	2458217	8320	32288	31392	0	101105	35168
83.84	23341ca4e4830bee	56976	2458409	8320	32288	31392	0	101111	35168
83.84	23341ca4e4830bee	56976	2458600	8320	32288	31392	0	101105	35168
83.84	23341ca4e4830bee	56976	2458791	8320	32224	31392	0	101111	34976
83.84	23341ca4e4830bee	56976	2458982	8320	32224	31392	0	101107	34976
83.84	23341ca4e4830bee	56976	2459173	8320	32224	31392	0	101107	34976
83.84	23341ca4e4830bee	56976	2459364	8320	32224	31392	0	101111	34976
83.84	23341ca4e4830bee	56976	2459555	8320	32240	31392	0	101111	35056
83.84	23341ca4e4830bee	56976	2459747	8320	32240	31392	0	101115	35056
83.84	23341ca4e4830bee	56976	2459938	8320	32240	31392	0	101109	35056
83.84	23341ca4e4830bee	56976	2460129	8320	32240	31392	0	101121	35056
83.84	23341ca4e4830bee	56976	2460320	8320	32256	31392	0	101107	35376
83.84	23341ca4e4830bee	56976	2460511	8320	32256	31392	0	101105	35376
83.84	23341ca4e4830bee	56976	2460702	8320	32256	31392	0	101109	35376
83.84	23341ca4e4830bee	56976	2460893	8320	32256	31392	0	101103	35376
83.84	23341ca4e4830bee	56960	2461085	8320	32240	31408	0	101109	35232
83.84	23341ca4e4830bee	56960	2461276	8320	32240	31408	0	101111	35232
83.84	23341ca4e4830bee	56960	2461457	8320	32240	31408	0	101115	35232
83.84	23341ca4e4830bee	56976	2461648	8320	32240	31408	0	101105	35008
83.84	23341ca4e4830bee	56976	2461889	8320	32256	31392	0	101113	35008
83.84	23341ca4e4830bee	56976	2462080	8320	32256	31392	0	101119	35008
83.84	23341ca4e4830bee	56976	2462271	8320	32256	31392	0	101115	35008
83.84	23341ca4e4830bee	56976	2462462	8320	32224	31408	0	101105	35232
83.84	23341ca4e4830bee	56976	2462654	8320	32224	31408	0	101117	35232
83.84	23341ca4e4830bee	56976	2462845	8320	32224	31408	0	101111	35232
83.84	23341ca4e4830bee	56976	2463036	8320	32224	31408	0	101103	35232
83.84	23341ca4e4830bee	56960	2463227	8320	32224	31408	0	101115	35184
83.84	23341ca4e4830bee	56960	2463419	8320	32224	31408	0	101115	35184
83.84	23341ca4e4830bee	56960	2463610	8320	32224	31408	0	101115	35184
83.84	23341ca4e4830bee	56960	2463801	8320	32224	31408	0	101115	34976
83.84	23341ca4e4830bee	56976	2463992	8320	32224	31392	0	101109	34976
83.84	23341ca4e4830bee	56976	2464183	8320	32224	31392	0	101115	34976
83.84	23341ca4e4830bee	56976	2464374	8320	32224	31392	0	101109	34976
83.84	23341ca4e4830bee	56960	2464577	8320	32256	31360	0	101109	35328
83.84	23341ca4e4830bee	56960	2464769	8320	32256	31360	0	101113	35328
83.84	23341ca4e4830bee	56960	2464960	8320	32256	31360	0	101109	35328
83.84	23341ca4e4830bee	56960	2465151	8320	32256	31360	0	101109	35328
83.84	23341ca4e4830bee	56960	2465342	8320	32240	31408	0	101109	35200
83.84	23341ca4e4830bee	56960	2465533	8320	32240	31408	0	101109	35200
83.84	23341ca4e4830bee	56960	2465766	8320	32240	31408	0	101099	35200
83.84	23341ca4e4830bee	56960	2465957	8320	32240	31408	0	101103	35200
83.84	23341ca4e4830bee	56976	2466148	8320	32256	31392	0	101115	35248
83.84	23341ca4e4830bee	56976	2466339	8320	32256	31392	0	101109	35248
83.84	23341ca4e4830bee	56976	2466530	8320	32256	31392	0	101109	35248
83.84	23341ca4e4830bee	56960	2466721	8320	32256	31392	0	101109	35040
83.84	23341ca4e4830bee	56960	2466913	8320	32256	31408	0	101115	35040
83.84	23341ca4e4830bee	56960	2467104	8320	32256	31408	0	101105	35040
83.84	23341ca4e4830bee	56960	2467295	8320	32256	31408	0	101117	35040
83.84	23341ca4e4830bee	56960	2467486	8320	32272	31424	0	101113	35312
83.84	23341ca4e4830bee	56960	2467677	8320	32272	31424	0	101109	35312
83.84	23341ca4e4830bee	56960	2467868	8320	32272	31424	0	101119	35312
83.84	23341ca4e4830bee	56960	2468059	8320	32272	31424	0	101113	35312
83.84	23341ca4e4830bee	56960	2468251	8320	32288	31392	0	101119	35280
83.84	23341ca4e4830bee	56960	2468442	8320	32288	31392	0	101111	35280
83.84	23341ca4e4830bee	56960	2468641	8320	32288	31392	0	101109	35280
83.84	23341ca4e4830bee	56960	2468832	8320	32288	31392	0	101113	35280
83.84	23341ca4e4830bee	56960	2469023	8320	32208	31360	0	101113	35312
83.84	23341ca4e4830bee	56960	2469215	8320	32208	31360	0	101113	35312
83.84	23341ca4e4830bee	56960	2469406	8320	32208	31360	0	101111	35312
83.84	23341ca4e4830bee	56960	2469637	8320	32192	31408	0	101109	35264
83.84	23341ca4e4830bee	56960	2469828	8320	32192	31408	0	101101	35264
83.84	23341ca4e4830bee	56960	2470030	8320	32192	31408	0	101113	35264
83.84	23341ca4e4830bee	56960	2470221	8320	32192	31408	0	101113	35264
83.84	23341ca4e4830bee	56960	2470413	8320	32240	31424	0	101113	35248
83.84	23341ca4e4830bee	56960	2470604	8320	32240	31424	0	101117	35248
83.84	23341ca4e4830bee	56960	2470795	8320	32240	31424	0	101115	35248
83.84	23341ca4e4830bee	56960	2470986	8320	32240	31424	0	101127	35248
83.84	23341ca4e4830bee	56960	2471177	8320	32272	31408	0	101109	35024
83.84	23341ca4e4830bee	56960	2471358	8320	32272	31408	0	101117	35024
83.84	23341ca4e4830bee	56960	2471553	8320	32272	31408	0	101111	35024
83.84	23341ca4e4830bee	56960	2471744	8320	32272	31408	0	101115	35024
83.84	23341ca4e4830bee	56960	2471935	8320	32240	31392	0	101119	35264
83.84	23341ca4e4830bee	56960	2472126	8320	32240	31392	0	101111	35264
83.84	23341ca4e4830bee	56960	2472317	8320	32240	31392	0	101111	35264
83.84	23341ca4e4830bee	56960	2472498	8320	32240	31392	0	101113	35184
83.84	23341ca4e4830bee	56960	2472690	8320	32224	31376	0	101113	35184
83.84	23341ca4e4830bee	56960	2472881	8320	32224	31376	0	101121	35184
83.84	23341ca4e4830bee	56960	2473072	8320	32224	31376	0	101109	35184
83.84	23341ca4e4830bee	56960	2473263	8320	32240	31376	0	101117	35296