Digit_temp	id	light	timestamp	acc_z	acc_y	acc_x	motion	pressure	humid
83.84	23341ca4e4830bee	56816	1922653	8320	32224	31376	0	101117	35008
83.84	23341ca4e4830bee	56816	1922853	8320	32224	31376	0	101111	35008
83.84	23341ca4e4830bee	56816	1923045	8320	32224	31376	0	101117	35008
83.84	23341ca4e4830bee	56816	1923236	8320	32224	31376	0	101113	35008
83.84	23341ca4e4830bee	56832	1923417	8320	32192	31392	0	101117	35104
83.84	23341ca4e4830bee	56832	1923608	8320	32192	31392	0	101111	35104
83.84	23341ca4e4830bee	56832	1923799	8320	32192	31392	0	101107	35104
83.84	23341ca4e4830bee	56832	1923990	8320	32192	31392	0	101107	35104
83.84	23341ca4e4830bee	56832	1924181	8320	32256	31408	0	101115	35152
83.84	23341ca4e4830bee	56832	1924372	8320	32256	31408	0	101111	35152
83.84	23341ca4e4830bee	56832	1924563	8320	32256	31408	0	101109	35152
83.84	23341ca4e4830bee	56832	1924754	8320	32256	31408	0	101117	34944
83.84	23341ca4e4830bee	56832	1924945	8320	32224	31392	0	101115	34944
83.84	23341ca4e4830bee	56832	1925136	8320	32224	31392	0	101109	34944
83.84	23341ca4e4830bee	56832	1925327	8320	32224	31392	0	101115	34944
83.84	23341ca4e4830bee	56832	1925518	8320	32240	31376	0	101105	35104
83.84	23341ca4e4830bee	56832	1925709	8320	32240	31376	0	101111	35104
83.84	23341ca4e4830bee	56832	1925900	8320	32240	31376	0	101113	35104
83.84	23341ca4e4830bee	56832	1926092	8320	32240	31376	0	101115	35104
83.84	23341ca4e4830bee	56832	1926283	8320	32272	31376	0	101109	35344
83.84	23341ca4e4830bee	56832	1926524	8320	32272	31376	0	101121	35344
84.02	23341ca4e4830bee	56832	1926715	8320	32272	31376	0	101117	35344
83.84	23341ca4e4830bee	56832	1926906	8320	32272	31376	0	101105	34960
83.84	23341ca4e4830bee	56832	1927087	8320	32240	31392	0	101107	34960
84.02	23341ca4e4830bee	56832	1927278	8320	32240	31392	0	101117	34960
84.02	23341ca4e4830bee	56832	1927469	8320	32240	31392	0	101113	34960
84.02	23341ca4e4830bee	56832	1927660	8320	32224	31392	0	101117	35008
84.02	23341ca4e4830bee	56832	1927851	8320	32224	31408	0	101107	35008
84.02	23341ca4e4830bee	56832	1928042	8320	32224	31408	0	101113	35008
84.02	23341ca4e4830bee	56832	1928234	8320	32224	31408	0	101113	35008
84.02	23341ca4e4830bee	56832	1928425	8320	32256	31392	0	101117	34992
84.02	23341ca4e4830bee	56832	1928616	8320	32256	31392	0	101111	34992
84.02	23341ca4e4830bee	56832	1928797	8320	32256	31392	0	101117	34992
84.02	23341ca4e4830bee	56832	1928988	8320	32256	31392	0	101115	34992
84.02	23341ca4e4830bee	56832	1929180	8320	32240	31392	0	101117	35104
84.02	23341ca4e4830bee	56832	1929371	8320	32240	31392	0	101115	35104
84.02	23341ca4e4830bee	56832	1929562	8320	32240	31392	0	101113	35104
84.02	23341ca4e4830bee	56832	1929753	8320	32240	31392	0	101109	35104
84.02	23341ca4e4830bee	56832	1929944	8320	32224	31392	0	101117	35296
84.02	23341ca4e4830bee	56832	1930136	8320	32224	31392	0	101113	35296
84.02	23341ca4e4830bee	56832	1930373	8320	32224	31392	0	101115	35296
84.02	23341ca4e4830bee	56816	1930564	8320	32224	31392	0	101115	35312
84.02	23341ca4e4830bee	56816	1930755	8320	32224	31392	0	101121	35312
84.02	23341ca4e4830bee	56816	1930946	8320	32224	31392	0	101109	35312
84.02	23341ca4e4830bee	56816	1931137	8320	32224	31392	0	101115	35312
84.02	23341ca4e4830bee	56832	1931328	8320	32224	31408	0	101109	35152
84.02	23341ca4e4830bee	56832	1931519	8320	32224	31408	0	101115	35152
84.02	23341ca4e4830bee	56832	1931710	8320	32224	31408	0	101117	35152
84.02	23341ca4e4830bee	56832	1931901	8320	32224	31408	0	101103	35152
84.02	23341ca4e4830bee	56832	1932093	8320	32224	31392	0	101103	34976
84.02	23341ca4e4830bee	56832	1932284	8320	32224	31392	0	101109	34976
84.02	23341ca4e4830bee	56832	1932475	8320	32224	31392	0	101111	34976
84.02	23341ca4e4830bee	56832	1932666	8320	32224	31392	0	101107	34976
84.02	23341ca4e4830bee	56832	1932857	8320	32240	31424	0	101101	35216
84.02	23341ca4e4830bee	56832	1933048	8320	32240	31424	0	101111	35216
84.02	23341ca4e4830bee	56832	1933239	8320	32240	31424	0	101111	35216
84.02	23341ca4e4830bee	56848	1933431	8320	32240	31424	0	101115	35344
84.02	23341ca4e4830bee	56848	1933622	8320	32256	31392	0	101115	35344
84.02	23341ca4e4830bee	56848	1933813	8320	32256	31392	0	101109	35344
84.02	23341ca4e4830bee	56848	1934004	8320	32256	31392	0	101109	35344
84.02	23341ca4e4830bee	56832	1934235	8320	32256	31392	0	101111	35312
84.02	23341ca4e4830bee	56832	1934426	8320	32256	31392	0	101115	35312
84.02	23341ca4e4830bee	56832	1934618	8320	32256	31392	0	101117	35312
84.02	23341ca4e4830bee	56832	1934809	8320	32256	31392	0	101109	35312
84.02	23341ca4e4830bee	56848	1935000	8320	32256	31424	0	101117	35216
84.02	23341ca4e4830bee	56848	1935191	8320	32256	31424	0	101121	35216
84.02	23341ca4e4830bee	56848	1935382	8320	32256	31424	0	101109	35216
84.02	23341ca4e4830bee	56848	1935573	8320	32256	31424	0	101115	34992
84.02	23341ca4e4830bee	56848	1935765	8320	32224	31376	0	101113	34992
84.02	23341ca4e4830bee	56848	1935956	8320	32224	31376	0	101107	34992
84.02	23341ca4e4830bee	56848	1936147	8320	32224	31376	0	101115	34992
84.02	23341ca4e4830bee	56848	1936328	8320	32240	31376	0	101103	35056
84.02	23341ca4e4830bee	56848	1936519	8320	32240	31456	0	101109	35056
84.02	23341ca4e4830bee	56848	1936710	8320	32240	31456	0	101113	35056
84.02	23341ca4e4830bee	56848	1936901	8320	32240	31456	0	101119	35056
84.02	23341ca4e4830bee	56848	1937093	8320	32240	31392	0	101107	34976
84.02	23341ca4e4830bee	56848	1937284	8320	32240	31392	0	101103	34976
84.02	23341ca4e4830bee	56848	1937475	8320	32240	31392	0	101109	34976
84.02	23341ca4e4830bee	56848	1937666	8320	32240	31392	0	101115	34976
84.02	23341ca4e4830bee	56848	1937857	8320	32224	31440	0	101113	34992
84.2	23341ca4e4830bee	56848	1938087	8320	32224	31440	0	101121	34992
84.02	23341ca4e4830bee	56848	1938268	8320	32224	31440	0	101115	34992
84.2	23341ca4e4830bee	56848	1938459	8320	32224	31440	0	101115	35184
84.02	23341ca4e4830bee	56848	1938650	8320	32272	31424	0	101119	35184
84.02	23341ca4e4830bee	56848	1938841	8320	32272	31424	0	101125	35184
84.2	23341ca4e4830bee	56848	1939032	8320	32272	31424	0	101111	35184
84.02	23341ca4e4830bee	56848	1939223	8320	32208	31424	0	101121	34944
84.2	23341ca4e4830bee	56848	1939417	8320	32208	31376	0	101123	34944
84.2	23341ca4e4830bee	56848	1939598	8320	32208	31376	0	101115	34944
84.2	23341ca4e4830bee	56848	1939789	8320	32208	31376	0	101111	34944
84.2	23341ca4e4830bee	56848	1939981	8320	32240	31424	0	101111	35376
84.2	23341ca4e4830bee	56848	1940172	8320	32240	31424	0	101109	35376
84.2	23341ca4e4830bee	56848	1940364	8320	32240	31424	0	101115	35376
84.2	23341ca4e4830bee	56848	1940555	8320	32240	31424	0	101121	35376
84.2	23341ca4e4830bee	56848	1940746	8448	32224	31392	0	101111	35136
84.2	23341ca4e4830bee	56848	1940937	8448	32224	31392	0	101111	35136
84.2	23341ca4e4830bee	56848	1941119	8448	32224	31392	0	101111	35136
84.2	23341ca4e4830bee	56848	1941310	8320	32224	31392	0	101113	35136
84.2	23341ca4e4830bee	56848	1941501	8320	32256	31424	0	101113	35088
84.2	23341ca4e4830bee	56848	1941692	8320	32256	31424	0	101109	35088
84.2	23341ca4e4830bee	56848	1941936	8320	32256	31424	0	101115	35088
84.2	23341ca4e4830bee	56848	1942127	8448	32240	31408	0	101115	35040
84.2	23341ca4e4830bee	56848	1942318	8448	32240	31408	0	101115	35040
84.2	23341ca4e4830bee	56848	1942509	8448	32240	31408	0	101115	35040
84.2	23341ca4e4830bee	56848	1942700	8448	32240	31408	0	101113	35040
84.2	23341ca4e4830bee	56848	1942891	8320	32240	31440	0	101099	35312
84.2	23341ca4e4830bee	56848	1943083	8320	32240	31440	0	101115	35312
84.2	23341ca4e4830bee	56848	1943274	8320	32240	31440	0	101117	35312
84.2	23341ca4e4830bee	56848	1943476	8320	32240	31440	0	101117	35312
84.2	23341ca4e4830bee	56848	1943667	8320	32256	31376	0	101109	35216
84.2	23341ca4e4830bee	56848	1943858	8320	32256	31376	0	101111	35216
84.2	23341ca4e4830bee	56848	1944039	8320	32256	31376	0	101115	35216
84.2	23341ca4e4830bee	56848	1944230	8320	32256	31376	0	101121	35216
84.2	23341ca4e4830bee	56848	1944426	8320	32272	31392	0	101109	35056
84.2	23341ca4e4830bee	56848	1944617	8320	32272	31392	0	101109	35056
84.2	23341ca4e4830bee	56848	1944799	8320	32272	31392	0	101115	35056
84.2	23341ca4e4830bee	56848	1944990	8320	32272	31392	0	101115	35248
84.2	23341ca4e4830bee	56848	1945181	8320	32192	31392	0	101115	35248
84.2	23341ca4e4830bee	56848	1945372	8320	32192	31392	0	101107	35248
84.2	23341ca4e4830bee	56848	1945563	8320	32192	31392	0	101113	35248
84.2	23341ca4e4830bee	56848	1945804	8320	32240	31408	0	101115	34992
84.2	23341ca4e4830bee	56848	1945995	8320	32240	31408	0	101113	34992
84.2	23341ca4e4830bee	56848	1946186	8320	32240	31408	0	101107	34992
84.2	23341ca4e4830bee	56848	1946378	8320	32240	31408	0	101109	34992
84.2	23341ca4e4830bee	56848	1946569	8320	32240	31376	0	101107	35040
84.2	23341ca4e4830bee	56848	1946760	8320	32240	31376	0	101113	35040
84.2	23341ca4e4830bee	56848	1946951	8320	32240	31376	0	101109	35040
84.2	23341ca4e4830bee	56864	1947142	8320	32240	31376	0	101107	35296
84.2	23341ca4e4830bee	56864	1947333	8320	32256	31360	0	101103	35296
84.2	23341ca4e4830bee	56864	1947524	8320	32256	31360	0	101113	35296
84.2	23341ca4e4830bee	56864	1947715	8320	32256	31360	0	101115	35296
84.2	23341ca4e4830bee	56848	1947906	8320	32240	31392	0	101117	35312
84.2	23341ca4e4830bee	56848	1948097	8320	32240	31392	0	101117	35312
84.2	23341ca4e4830bee	56848	1948289	8320	32240	31392	0	101109	35312
84.2	23341ca4e4830bee	56848	1948470	8320	32240	31392	0	101109	35312
84.2	23341ca4e4830bee	56864	1948661	8320	32240	31392	0	101121	35312
84.2	23341ca4e4830bee	56864	1948852	8320	32240	31392	0	101109	35312
84.2	23341ca4e4830bee	56864	1949043	8320	32240	31392	0	101111	35312
84.2	23341ca4e4830bee	56864	1949235	8320	32240	31392	0	101117	35312
84.2	23341ca4e4830bee	56864	1949426	8320	32208	31376	0	101113	35376
84.2	23341ca4e4830bee	56864	1949649	8320	32208	31376	0	101117	35376
84.2	23341ca4e4830bee	56864	1949830	8320	32208	31376	0	101105	35376
84.2	23341ca4e4830bee	56864	1950021	8320	32208	31376	0	101111	35024
84.2	23341ca4e4830bee	56864	1950212	8320	32256	31424	0	101113	35024
84.2	23341ca4e4830bee	56864	1950403	8320	32256	31424	0	101115	35024
84.2	23341ca4e4830bee	56864	1950594	8320	32256	31424	0	101119	35024
84.2	23341ca4e4830bee	56864	1950785	8320	32256	31376	0	101113	34960
84.2	23341ca4e4830bee	56864	1950976	8320	32256	31376	0	101113	34960
84.2	23341ca4e4830bee	56864	1951167	8320	32256	31376	0	101113	34960
84.2	23341ca4e4830bee	56864	1951358	8320	32256	31376	0	101109	34960
84.2	23341ca4e4830bee	56848	1951539	8320	32224	31376	0	101123	35312
84.2	23341ca4e4830bee	56848	1951731	8320	32224	31376	0	101113	35312
84.2	23341ca4e4830bee	56848	1951922	8320	32224	31376	0	101107	35312
84.2	23341ca4e4830bee	56848	1952113	8320	32224	31376	0	101113	35312
84.2	23341ca4e4830bee	56864	1952304	8448	32224	31392	0	101113	35280
84.2	23341ca4e4830bee	56864	1952495	8448	32224	31392	0	101115	35280
84.2	23341ca4e4830bee	56864	1952687	8448	32224	31392	0	101113	35280
84.2	23341ca4e4830bee	56864	1952878	8320	32224	31392	0	101119	35280
84.2	23341ca4e4830bee	56864	1953069	8320	32240	31376	0	101113	35360
84.2	23341ca4e4830bee	56864	1953260	8320	32240	31376	0	101109	35360
84.2	23341ca4e4830bee	56864	1953508	8320	32240	31376	0	101115	35360
84.2	23341ca4e4830bee	56864	1953699	8320	32240	31408	0	101115	35312
84.2	23341ca4e4830bee	56864	1953880	8320	32240	31408	0	101113	35312
84.2	23341ca4e4830bee	56864	1954071	8320	32240	31408	0	101109	35312
84.2	23341ca4e4830bee	56864	1954263	8320	32240	31408	0	101113	35312
84.2	23341ca4e4830bee	56864	1954454	8320	32224	31424	0	101117	35328
84.2	23341ca4e4830bee	56864	1954645	8320	32224	31424	0	101119	35328
84.2	23341ca4e4830bee	56864	1954836	8320	32224	31424	0	101105	35328
84.2	23341ca4e4830bee	56864	1955027	8320	32224	31424	0	101111	35328
84.2	23341ca4e4830bee	56864	1955218	8320	32240	31376	0	101115	35248
84.2	23341ca4e4830bee	56864	1955409	8320	32240	31376	0	101121	35248
84.2	23341ca4e4830bee	56864	1955590	8320	32240	31376	0	101121	35248
84.2	23341ca4e4830bee	56864	1955781	8320	32240	31376	0	101113	35248
84.2	23341ca4e4830bee	56864	1955972	8320	32272	31408	0	101117	35280
84.2	23341ca4e4830bee	56864	1956164	8320	32272	31408	0	101123	35280
84.2	23341ca4e4830bee	56864	1956355	8320	32272	31408	0	101117	35280
84.2	23341ca4e4830bee	56864	1956546	8320	32272	31408	0	101115	35264
84.2	23341ca4e4830bee	56864	1956737	8320	32240	31360	0	101111	35264
84.2	23341ca4e4830bee	56864	1956928	8320	32240	31360	0	101111	35264
84.2	23341ca4e4830bee	56864	1957120	8320	32240	31360	0	101111	35264
84.2	23341ca4e4830bee	56864	1957365	8320	32272	31392	0	101107	35136
84.2	23341ca4e4830bee	56864	1957556	8320	32272	31392	0	101109	35136
84.2	23341ca4e4830bee	56864	1957747	8320	32272	31392	0	101111	35136
84.2	23341ca4e4830bee	56864	1957938	8320	32272	31392	0	101115	35136
84.2	23341ca4e4830bee	56880	1958129	8320	32224	31408	0	101117	35056
84.2	23341ca4e4830bee	56880	1958310	8320	32224	31408	0	101111	35056
84.2	23341ca4e4830bee	56880	1958501	8320	32224	31408	0	101113	35056
84.2	23341ca4e4830bee	56880	1958692	8320	32224	31408	0	101117	35360
84.2	23341ca4e4830bee	56864	1958883	8320	32208	31424	0	101121	35360
84.2	23341ca4e4830bee	56864	1959075	8320	32208	31424	0	101111	35360
84.2	23341ca4e4830bee	56864	1959266	8320	32208	31424	0	101117	35360
84.2	23341ca4e4830bee	56864	1959457	8320	32240	31408	0	101111	35040
84.2	23341ca4e4830bee	56864	1959648	8320	32240	31408	0	101115	35040
84.2	23341ca4e4830bee	56864	1959839	8320	32240	31408	0	101115	35040
84.2	23341ca4e4830bee	56864	1960020	8320	32240	31408	0	101115	35040
84.2	23341ca4e4830bee	56880	1960211	8320	32240	31392	0	101123	35312
84.2	23341ca4e4830bee	56880	1960403	8320	32240	31392	0	101105	35312
84.2	23341ca4e4830bee	56880	1960594	8320	32240	31392	0	101117	35312
84.2	23341ca4e4830bee	56880	1960785	8320	32240	31392	0	101109	35312
84.2	23341ca4e4830bee	56864	1960976	8320	32256	31392	0	101111	35360
84.2	23341ca4e4830bee	56864	1961219	8320	32256	31392	0	101111	35360
84.2	23341ca4e4830bee	56864	1961410	8320	32256	31392	0	101105	35360
84.2	23341ca4e4830bee	56880	1961591	8320	32256	31392	0	101105	35248
84.2	23341ca4e4830bee	56880	1961782	8320	32224	31376	0	101117	35248
84.2	23341ca4e4830bee	56880	1961973	8320	32224	31376	0	101117	35248
84.2	23341ca4e4830bee	56880	1962164	8320	32224	31376	0	101111	35248
84.2	23341ca4e4830bee	56880	1962355	8320	32224	31424	0	101117	35328
84.2	23341ca4e4830bee	56880	1962546	8320	32224	31424	0	101117	35328
84.2	23341ca4e4830bee	56880	1962738	8320	32224	31424	0	101117	35328
84.2	23341ca4e4830bee	56880	1962929	8320	32224	31424	0	101121	35328
84.2	23341ca4e4830bee	56880	1963120	8320	32256	31376	0	101111	35184
84.2	23341ca4e4830bee	56880	1963301	8320	32256	31376	0	101111	35184
84.2	23341ca4e4830bee	56880	1963492	8320	32256	31376	0	101117	35184
84.2	23341ca4e4830bee	56880	1963683	8320	32256	31376	0	101119	35184
84.2	23341ca4e4830bee	56880	1963875	8320	32224	31424	0	101111	35152
84.2	23341ca4e4830bee	56880	1964066	8320	32224	31424	0	101111	35152
84.2	23341ca4e4830bee	56880	1964257	8320	32224	31424	0	101111	35152
84.2	23341ca4e4830bee	56880	1964448	8320	32224	31424	0	101111	35152
84.2	23341ca4e4830bee	56880	1964639	8320	32256	31392	0	101111	35168
84.2	23341ca4e4830bee	56880	1964825	8320	32256	31392	0	101105	35168
84.2	23341ca4e4830bee	56880	1965070	8320	32256	31392	0	101111	35168
84.2	23341ca4e4830bee	56976	1965261	8320	32256	31408	0	101113	34992
84.2	23341ca4e4830bee	56976	1965442	8320	32256	31408	0	101111	34992
84.2	23341ca4e4830bee	56976	1965633	8320	32256	31408	0	101117	34992
84.2	23341ca4e4830bee	56976	1965824	8320	32256	31408	0	101121	34992
84.2	23341ca4e4830bee	57200	1966015	8320	32240	31408	1	101109	35120
84.2	23341ca4e4830bee	57200	1966206	8320	32240	31408	1	101119	35120
84.2	23341ca4e4830bee	57200	1966400	8320	32240	31408	1	101111	35120
84.2	23341ca4e4830bee	57200	1966581	8320	32240	31408	1	101123	35120
84.2	23341ca4e4830bee	57712	1966773	8320	32256	31376	0	101119	35280
84.2	23341ca4e4830bee	57712	1966964	8320	32256	31376	1	101113	35280
84.2	23341ca4e4830bee	57712	1967155	8320	32256	31376	1	101119	35280
84.2	23341ca4e4830bee	57712	1967346	8320	32256	31376	0	101115	35280
84.2	23341ca4e4830bee	57248	1967537	8320	32256	31424	1	101111	35104
84.2	23341ca4e4830bee	57248	1967728	8320	32256	31424	0	101109	35104
84.2	23341ca4e4830bee	57248	1967919	8320	32256	31424	1	101113	35104
84.2	23341ca4e4830bee	56896	1968111	8320	32240	31424	0	101109	35216
84.2	23341ca4e4830bee	56896	1968292	8320	32240	31424	0	101111	35216
84.2	23341ca4e4830bee	56896	1968483	8320	32240	31424	1	101119	35216
84.2	23341ca4e4830bee	56896	1968675	8320	32240	31424	0	101105	35216
84.2	23341ca4e4830bee	56880	1968917	8320	32288	31360	0	101111	35120
84.2	23341ca4e4830bee	56880	1969108	8320	32288	31360	0	101115	35120
84.2	23341ca4e4830bee	56880	1969299	8320	32288	31360	0	101105	35120
84.2	23341ca4e4830bee	56880	1969490	8320	32288	31360	0	101111	35120
84.2	23341ca4e4830bee	56896	1969671	8320	32240	31392	0	101115	35264
84.2	23341ca4e4830bee	56896	1969863	8320	32240	31392	0	101111	35264
84.2	23341ca4e4830bee	56896	1970054	8320	32240	31392	0	101111	35264
84.2	23341ca4e4830bee	56896	1970245	8320	32240	31392	0	101117	35328
84.2	23341ca4e4830bee	56896	1970441	8320	32272	31392	0	101105	35328
84.2	23341ca4e4830bee	56896	1970622	8320	32272	31392	0	101111	35328
84.2	23341ca4e4830bee	56896	1970813	8320	32272	31392	0	101119	35328
84.2	23341ca4e4830bee	56880	1971005	8320	32224	31392	0	101121	35024
84.2	23341ca4e4830bee	56880	1971196	8320	32224	31408	0	101121	35024
84.2	23341ca4e4830bee	56880	1971387	8320	32224	31408	0	101109	35024
84.2	23341ca4e4830bee	56880	1971578	8320	32224	31408	0	101123	35024
84.2	23341ca4e4830bee	56880	1971769	8320	32240	31424	0	101115	35024
84.2	23341ca4e4830bee	56880	1971960	8320	32240	31424	0	101111	35024
84.2	23341ca4e4830bee	56880	1972154	8320	32240	31424	0	101115	35024
84.2	23341ca4e4830bee	56880	1972345	8320	32240	31424	0	101107	35024
84.2	23341ca4e4830bee	56880	1972536	8320	32208	31376	0	101111	35056
84.2	23341ca4e4830bee	56880	1972780	8320	32208	31376	0	101111	35056
84.2	23341ca4e4830bee	56880	1972971	8320	32208	31376	0	101109	35056
84.2	23341ca4e4830bee	56896	1973152	8320	32208	31376	0	101111	35248
84.2	23341ca4e4830bee	56896	1973343	8320	32256	31424	0	101117	35248
84.2	23341ca4e4830bee	56896	1973534	8320	32256	31424	0	101123	35248
84.2	23341ca4e4830bee	56896	1973725	8320	32256	31424	0	101109	35248
84.2	23341ca4e4830bee	56880	1973916	8320	32240	31424	0	101117	34960
84.2	23341ca4e4830bee	56880	1974108	8320	32240	31424	0	101119	34960
84.2	23341ca4e4830bee	56880	1974299	8320	32240	31424	0	101111	34960
84.2	23341ca4e4830bee	56880	1974490	8320	32240	31424	0	101099	34960
84.2	23341ca4e4830bee	56880	1974681	8320	32256	31392	0	101117	35072
84.2	23341ca4e4830bee	56880	1974862	8320	32256	31392	0	101117	35072
84.2	23341ca4e4830bee	56880	1975053	8320	32256	31392	0	101121	35072
84.2	23341ca4e4830bee	56880	1975244	8320	32256	31392	0	101119	35072
84.2	23341ca4e4830bee	56896	1975445	8320	32240	31392	0	101115	35216
84.2	23341ca4e4830bee	56896	1975636	8320	32240	31392	0	101115	35216
84.2	23341ca4e4830bee	56896	1975827	8320	32240	31392	0	101117	35216
84.2	23341ca4e4830bee	56896	1976018	8320	32240	31392	0	101113	35312
84.2	23341ca4e4830bee	56896	1976210	8320	32256	31392	0	101117	35312
84.2	23341ca4e4830bee	56896	1976401	8320	32256	31392	0	101113	35312
84.2	23341ca4e4830bee	56896	1976633	8320	32256	31392	0	101119	35312
84.2	23341ca4e4830bee	56880	1976824	8320	32240	31408	0	101117	35104
84.2	23341ca4e4830bee	56880	1977016	8320	32240	31408	0	101115	35104
84.2	23341ca4e4830bee	56880	1977207	8320	32240	31408	0	101115	35104
84.2	23341ca4e4830bee	56880	1977398	8320	32240	31408	0	101113	35104
84.2	23341ca4e4830bee	56880	1977589	8320	32240	31408	0	101115	35136
84.2	23341ca4e4830bee	56880	1977780	8320	32240	31408	0	101115	35136
84.2	23341ca4e4830bee	56880	1977971	8320	32240	31408	0	101113	35136
84.2	23341ca4e4830bee	56880	1978162	8320	32240	31408	0	101115	35136
84.2	23341ca4e4830bee	56880	1978343	8320	32256	31376	0	101121	34928
84.2	23341ca4e4830bee	56880	1978534	8320	32256	31376	0	101109	34928
84.2	23341ca4e4830bee	56880	1978725	8320	32256	31376	0	101115	34928
84.2	23341ca4e4830bee	56880	1978916	8448	32256	31376	0	101117	34928
84.2	23341ca4e4830bee	56880	1979108	8448	32256	31408	0	101117	34928
84.2	23341ca4e4830bee	56880	1979299	8448	32256	31408	0	101113	34928
84.2	23341ca4e4830bee	56880	1979490	8448	32256	31408	0	101109	34928
84.2	23341ca4e4830bee	56880	1979681	8448	32224	31376	0	101113	35248
84.2	23341ca4e4830bee	56880	1979873	8448	32224	31376	0	101117	35248
84.2	23341ca4e4830bee	56880	1980064	8448	32224	31376	0	101121	35248
84.2	23341ca4e4830bee	56880	1980255	8448	32224	31376	0	101111	35248
84.2	23341ca4e4830bee	56880	1980498	8320	32208	31392	0	101117	35392
84.02	23341ca4e4830bee	56880	1980689	8320	32208	31392	0	101109	35392
84.02	23341ca4e4830bee	56880	1980880	8320	32208	31392	0	101113	35392
84.2	23341ca4e4830bee	56880	1981071	8320	32208	31392	0	101107	35392
84.02	23341ca4e4830bee	56880	1981262	8320	32256	31424	0	101113	35136
84.2	23341ca4e4830bee	56880	1981443	8320	32256	31424	0	101117	35136
84.2	23341ca4e4830bee	56880	1981634	8320	32256	31424	0	101119	35136
84.2	23341ca4e4830bee	56864	1981825	8320	32256	31424	0	101117	35216
84.2	23341ca4e4830bee	56864	1982016	8320	32224	31408	0	101113	35216
84.02	23341ca4e4830bee	56864	1982207	8320	32224	31408	0	101107	35216
84.02	23341ca4e4830bee	56864	1982399	8320	32224	31408	0	101119	35216
84.2	23341ca4e4830bee	56880	1982590	8320	32256	31360	0	101111	35280
84.02	23341ca4e4830bee	56880	1982781	8320	32256	31360	0	101113	35280
84.02	23341ca4e4830bee	56880	1982972	8320	32256	31360	0	101113	35280
84.02	23341ca4e4830bee	56880	1983153	8320	32256	31360	0	101107	35280
84.2	23341ca4e4830bee	56880	1983344	8320	32208	31408	0	101113	35136
84.02	23341ca4e4830bee	56880	1983536	8320	32208	31408	0	101119	35136
84.2	23341ca4e4830bee	56880	1983727	8320	32208	31408	0	101111	35136
84.02	23341ca4e4830bee	56880	1983918	8320	32208	31408	0	101113	35136
84.2	23341ca4e4830bee	56864	1984109	8320	32240	31376	0	101113	34944
84.02	23341ca4e4830bee	56864	1984352	8320	32240	31376	0	101119	34944
84.2	23341ca4e4830bee	56864	1984543	8320	32240	31376	0	101125	34944
84.02	23341ca4e4830bee	56880	1984734	8320	32224	31376	0	101113	35056
84.02	23341ca4e4830bee	56880	1984925	8320	32224	31376	0	101113	35056
84.02	23341ca4e4830bee	56880	1985117	8320	32224	31376	0	101119	35056
84.02	23341ca4e4830bee	56880	1985308	8320	32224	31376	0	101107	35056
84.02	23341ca4e4830bee	56864	1985499	8320	32240	31392	0	101113	34960
84.02	23341ca4e4830bee	56864	1985690	8320	32240	31392	0	101103	34960
84.02	23341ca4e4830bee	56864	1985881	8320	32240	31392	0	101113	34960
84.02	23341ca4e4830bee	56864	1986072	8320	32240	31392	0	101119	34960
84.02	23341ca4e4830bee	56880	1986263	8320	32256	31424	0	101107	35312
84.02	23341ca4e4830bee	56880	1986454	8320	32256	31424	0	101113	35312
84.02	23341ca4e4830bee	56880	1986645	8320	32256	31424	0	101113	35312
84.02	23341ca4e4830bee	56880	1986836	8320	32256	31424	0	101113	35312
84.02	23341ca4e4830bee	56880	1987028	8320	32240	31424	0	101109	35200
84.02	23341ca4e4830bee	56880	1987219	8320	32240	31424	0	101113	35200
84.02	23341ca4e4830bee	56880	1987410	8320	32240	31424	0	101113	35200
84.02	23341ca4e4830bee	56864	1987601	8448	32240	31424	0	101109	35072
84.02	23341ca4e4830bee	56864	1987792	8448	32240	31424	0	101113	35072
84.02	23341ca4e4830bee	56864	1987974	8448	32240	31424	0	101113	35072
84.02	23341ca4e4830bee	56864	1988216	8448	32240	31424	0	101113	35072
84.02	23341ca4e4830bee	56880	1988407	8320	32240	31392	0	101115	34992
84.02	23341ca4e4830bee	56880	1988609	8320	32240	31392	0	101115	34992
84.02	23341ca4e4830bee	56880	1988800	8320	32240	31392	0	101115	34992
84.2	23341ca4e4830bee	56880	1988991	8320	32240	31392	0	101117	34992
84.02	23341ca4e4830bee	56864	1989182	8320	32240	31424	0	101107	35216
84.02	23341ca4e4830bee	56864	1989374	8320	32240	31424	0	101113	35216
84.02	23341ca4e4830bee	56864	1989565	8320	32240	31424	0	101101	35216
84.02	23341ca4e4830bee	56864	1989756	8320	32240	31424	0	101119	35024
84.02	23341ca4e4830bee	56864	1989947	8320	32272	31376	0	101115	35024
84.02	23341ca4e4830bee	56864	1990138	8320	32272	31376	0	101115	35024
84.02	23341ca4e4830bee	56864	1990329	8320	32272	31376	0	101109	35024
84.02	23341ca4e4830bee	56864	1990521	8448	32224	31440	0	101121	35216
84.02	23341ca4e4830bee	56864	1990712	8448	32224	31440	0	101107	35216
84.02	23341ca4e4830bee	56864	1990903	8448	32224	31440	0	101109	35216
84.02	23341ca4e4830bee	56864	1991084	8448	32224	31440	0	101113	35216
84.2	23341ca4e4830bee	56864	1991275	8320	32208	31424	0	101113	35280
84.02	23341ca4e4830bee	56864	1991466	8320	32208	31424	0	101119	35280
84.2	23341ca4e4830bee	56864	1991658	8320	32208	31424	0	101117	35280
84.02	23341ca4e4830bee	56864	1991849	8320	32208	31424	0	101113	35280
84.02	23341ca4e4830bee	56864	1992078	8448	32256	31376	0	101109	35312
84.02	23341ca4e4830bee	56864	1992269	8448	32256	31376	0	101119	35312
84.2	23341ca4e4830bee	56864	1992467	8448	32256	31376	0	101121	35312
84.2	23341ca4e4830bee	56864	1992658	8320	32256	31376	0	101113	35008
84.2	23341ca4e4830bee	56864	1992849	8320	32240	31392	0	101123	35008
84.02	23341ca4e4830bee	56864	1993041	8320	32240	31392	0	101115	35008
84.2	23341ca4e4830bee	56864	1993232	8320	32240	31392	0	101119	35008
84.2	23341ca4e4830bee	56864	1993423	8320	32224	31408	0	101115	35168
84.2	23341ca4e4830bee	56864	1993614	8320	32224	31408	0	101113	35168
84.02	23341ca4e4830bee	56864	1993805	8320	32224	31408	0	101109	35168
84.2	23341ca4e4830bee	56864	1993996	8320	32224	31408	0	101115	35168
84.2	23341ca4e4830bee	56864	1994187	8320	32224	31392	0	101115	35056
84.2	23341ca4e4830bee	56864	1994378	8320	32224	31392	0	101109	35056
84.2	23341ca4e4830bee	56864	1994569	8320	32224	31392	0	101111	35056
84.2	23341ca4e4830bee	56864	1994761	8320	32224	31392	0	101109	35056
84.2	23341ca4e4830bee	56864	1994952	8320	32240	31392	0	101115	35088
84.2	23341ca4e4830bee	56864	1995143	8320	32240	31392	0	101113	35088
84.2	23341ca4e4830bee	56864	1995344	8320	32240	31392	0	101115	35088
84.2	23341ca4e4830bee	56864	1995525	8320	32240	31392	0	101109	35056
84.2	23341ca4e4830bee	56864	1995716	8320	32224	31408	0	101109	35056
84.2	23341ca4e4830bee	56864	1995951	8320	32224	31408	0	101107	35056
84.2	23341ca4e4830bee	56864	1996142	8320	32224	31408	0	101113	35056
84.2	23341ca4e4830bee	56864	1996333	8320	32224	31392	0	101103	35344
84.2	23341ca4e4830bee	56864	1996524	8320	32224	31392	0	101119	35344
84.2	23341ca4e4830bee	56864	1996705	8320	32224	31392	0	101127	35344
84.2	23341ca4e4830bee	56864	1996896	8320	32224	31392	0	101115	35344
84.2	23341ca4e4830bee	56864	1997087	8320	32224	31408	0	101119	35200
84.2	23341ca4e4830bee	56864	1997278	8320	32224	31408	0	101121	35200
84.2	23341ca4e4830bee	56864	1997469	8320	32224	31408	0	101115	35200
84.2	23341ca4e4830bee	56864	1997660	8320	32224	31408	0	101121	35200
84.2	23341ca4e4830bee	56864	1997851	8320	32240	31376	0	101109	34960
84.2	23341ca4e4830bee	56864	1998043	8320	32240	31376	0	101117	34960
84.2	23341ca4e4830bee	56864	1998234	8320	32240	31376	0	101109	34960
84.2	23341ca4e4830bee	56864	1998415	8320	32240	31376	0	101115	35072
84.2	23341ca4e4830bee	56864	1998606	8320	32224	31408	0	101113	35072
84.2	23341ca4e4830bee	56864	1998797	8320	32224	31408	0	101125	35072
84.2	23341ca4e4830bee	56864	1998988	8320	32224	31408	0	101119	35072
84.2	23341ca4e4830bee	56864	1999180	8320	32208	31408	0	101113	35328
84.2	23341ca4e4830bee	56864	1999372	8320	32208	31408	0	101119	35328
84.2	23341ca4e4830bee	56864	1999563	8320	32208	31408	0	101115	35328
84.2	23341ca4e4830bee	56864	1999784	8320	32208	31408	0	101109	35328
84.2	23341ca4e4830bee	56848	1999965	8320	32256	31392	0	101123	35024
84.2	23341ca4e4830bee	56848	2000156	8320	32256	31392	0	101113	35024
84.2	23341ca4e4830bee	56848	2000347	8320	32256	31392	0	101119	35024
84.2	23341ca4e4830bee	56848	2000538	8320	32256	31392	0	101121	35024
84.2	23341ca4e4830bee	56848	2000730	8320	32240	31408	0	101123	35376
84.2	23341ca4e4830bee	56848	2000921	8320	32240	31408	0	101113	35376
84.2	23341ca4e4830bee	56848	2001112	8320	32240	31408	0	101109	35376
84.2	23341ca4e4830bee	56848	2001303	8448	32240	31408	0	101113	35232
84.2	23341ca4e4830bee	56848	2001494	8448	32256	31408	0	101119	35232
84.2	23341ca4e4830bee	56848	2001685	8448	32256	31408	0	101115	35232
84.2	23341ca4e4830bee	56848	2001877	8448	32256	31408	0	101107	35232
84.2	23341ca4e4830bee	56848	2002068	8320	32272	31408	0	101115	35360
84.2	23341ca4e4830bee	56848	2002259	8320	32272	31408	0	101115	35360
84.2	23341ca4e4830bee	56848	2002487	8320	32272	31408	0	101115	35360
84.2	23341ca4e4830bee	56848	2002678	8320	32272	31408	0	101109	35360
84.2	23341ca4e4830bee	56848	2002870	8320	32192	31344	0	101119	35264
84.2	23341ca4e4830bee	56848	2003090	8320	32192	31344	0	101117	35264
84.2	23341ca4e4830bee	56848	2003282	8320	32192	31344	0	101113	35264
84.2	23341ca4e4830bee	56848	2003473	8320	32192	31344	0	101117	35056
84.2	23341ca4e4830bee	56848	2003711	8320	32224	31424	0	101115	35056
84.2	23341ca4e4830bee	56848	2003902	8320	32224	31424	0	101113	35056
84.2	23341ca4e4830bee	56848	2004093	8320	32224	31424	0	101123	35056
84.2	23341ca4e4830bee	56848	2004284	8448	32256	31392	0	101119	35216
84.2	23341ca4e4830bee	56848	2004483	8448	32256	31392	0	101113	35216
84.2	23341ca4e4830bee	56848	2004674	8448	32256	31392	0	101113	35216
84.2	23341ca4e4830bee	56848	2004865	8448	32256	31392	0	101115	35216
84.2	23341ca4e4830bee	56848	2005046	8448	32272	31424	0	101123	35136
84.2	23341ca4e4830bee	56848	2005237	8448	32272	31424	0	101117	35136
84.2	23341ca4e4830bee	56848	2005428	8448	32272	31424	0	101117	35136
84.2	23341ca4e4830bee	56848	2005620	8320	32272	31424	0	101117	35136
84.2	23341ca4e4830bee	56832	2005811	8320	32240	31376	0	101109	35056
84.2	23341ca4e4830bee	56832	2006002	8320	32240	31376	0	101119	35056
84.2	23341ca4e4830bee	56832	2006193	8320	32240	31376	0	101111	35056
84.2	23341ca4e4830bee	56848	2006384	8320	32240	31376	0	101109	35376
84.2	23341ca4e4830bee	56848	2006576	8320	32224	31360	0	101117	35376
84.2	23341ca4e4830bee	56848	2006757	8320	32224	31360	0	101119	35376
84.2	23341ca4e4830bee	56848	2006948	8320	32224	31360	0	101117	35376
84.2	23341ca4e4830bee	56848	2007139	8448	32240	31392	0	101111	35376
84.2	23341ca4e4830bee	56848	2007331	8448	32240	31392	0	101111	35376
84.2	23341ca4e4830bee	56848	2007575	8448	32240	31392	0	101113	35376
84.2	23341ca4e4830bee	56848	2007766	8448	32240	31392	0	101125	35376
84.2	23341ca4e4830bee	56848	2007957	8320	32256	31408	0	101119	35296
84.2	23341ca4e4830bee	56848	2008148	8320	32256	31408	0	101119	35296
84.2	23341ca4e4830bee	56848	2008339	8320	32256	31408	0	101105	35296
84.2	23341ca4e4830bee	56848	2008531	8320	32256	31408	0	101119	35216
84.2	23341ca4e4830bee	56848	2008722	8320	32240	31408	0	101115	35216
84.2	23341ca4e4830bee	56848	2008913	8320	32240	31408	0	101123	35216
84.2	23341ca4e4830bee	56848	2009104	8320	32240	31408	0	101117	35216
84.2	23341ca4e4830bee	56832	2009295	8448	32240	31408	0	101119	35232
84.2	23341ca4e4830bee	56832	2009486	8448	32240	31376	0	101113	35232
84.2	23341ca4e4830bee	56832	2009667	8448	32240	31376	0	101117	35232
84.2	23341ca4e4830bee	56832	2009858	8448	32240	31376	0	101123	35232
84.2	23341ca4e4830bee	56848	2010049	8320	32224	31392	0	101113	35296
84.2	23341ca4e4830bee	56848	2010241	8320	32224	31392	0	101113	35296
84.2	23341ca4e4830bee	56848	2010432	8320	32224	31392	0	101117	35296
84.2	23341ca4e4830bee	56848	2010623	8320	32224	31392	0	101119	35296
84.2	23341ca4e4830bee	56832	2010814	8320	32256	31424	0	101111	35328
84.2	23341ca4e4830bee	56832	2011006	8320	32256	31424	0	101113	35328
84.2	23341ca4e4830bee	56832	2011187	8320	32256	31424	0	101117	35328
84.2	23341ca4e4830bee	56832	2011429	8320	32256	31424	0	101107	35008
84.2	23341ca4e4830bee	56832	2011621	8320	32224	31376	0	101113	35008
84.2	23341ca4e4830bee	56832	2011812	8320	32224	31376	0	101115	35008
84.2	23341ca4e4830bee	56832	2012003	8320	32224	31376	0	101111	35008
84.2	23341ca4e4830bee	56832	2012194	8320	32208	31392	0	101123	35376
84.2	23341ca4e4830bee	56832	2012385	8320	32208	31392	0	101113	35376
84.2	23341ca4e4830bee	56832	2012576	8320	32208	31392	0	101105	35376
84.2	23341ca4e4830bee	56832	2012757	8320	32208	31392	0	101117	35376
84.38	23341ca4e4830bee	56832	2012948	8448	32256	31392	0	101117	35328
84.2	23341ca4e4830bee	56832	2013139	8448	32256	31392	0	101117	35328
84.38	23341ca4e4830bee	56832	2013331	8448	32256	31392	0	101109	35328
84.2	23341ca4e4830bee	56832	2013522	8448	32256	31392	0	101105	35328
84.38	23341ca4e4830bee	56832	2013713	8448	32240	31376	0	101111	35024
84.2	23341ca4e4830bee	56832	2013904	8448	32240	31376	0	101117	35024
84.38	23341ca4e4830bee	56832	2014095	8448	32240	31376	0	101111	35024
84.2	23341ca4e4830bee	56832	2014286	8320	32240	31376	0	101121	35024
84.38	23341ca4e4830bee	56832	2014468	8320	32256	31440	0	101107	35200
84.38	23341ca4e4830bee	56832	2014659	8320	32256	31440	0	101109	35200
84.38	23341ca4e4830bee	56832	2014850	8320	32256	31440	0	101119	35200
84.38	23341ca4e4830bee	56832	2015041	8448	32256	31440	0	101109	35040
84.38	23341ca4e4830bee	56832	2015285	8448	32240	31424	0	101115	35040
84.38	23341ca4e4830bee	56832	2015476	8448	32240	31424	0	101121	35040
84.38	23341ca4e4830bee	56832	2015667	8448	32240	31424	0	101125	35040
84.38	23341ca4e4830bee	56816	2015848	8448	32288	31376	0	101121	35280
84.38	23341ca4e4830bee	56816	2016039	8448	32288	31376	0	101115	35280
84.38	23341ca4e4830bee	56816	2016230	8448	32288	31376	0	101115	35280
84.38	23341ca4e4830bee	56816	2016421	8448	32288	31376	0	101115	35280
84.38	23341ca4e4830bee	56832	2016612	8320	32208	31392	0	101117	35344
84.38	23341ca4e4830bee	56832	2016804	8320	32208	31392	0	101119	35344
84.38	23341ca4e4830bee	56832	2016995	8320	32208	31392	0	101113	35344
84.38	23341ca4e4830bee	56832	2017186	8320	32208	31392	0	101113	35344
84.38	23341ca4e4830bee	56832	2017378	8320	32272	31392	0	101119	34992
84.38	23341ca4e4830bee	56832	2017569	8320	32272	31392	0	101123	34992
84.38	23341ca4e4830bee	56832	2017760	8320	32272	31392	0	101119	34992
84.38	23341ca4e4830bee	56816	2017951	8320	32272	31392	0	101119	35248
84.38	23341ca4e4830bee	56816	2018142	8320	32272	31392	0	101113	35248
84.38	23341ca4e4830bee	56816	2018333	8320	32272	31392	0	101117	35248
84.38	23341ca4e4830bee	56816	2018525	8320	32272	31392	0	101115	35248
84.38	23341ca4e4830bee	56832	2018716	8320	32240	31408	0	101119	35184
84.38	23341ca4e4830bee	56832	2018907	8320	32240	31408	0	101107	35184
84.38	23341ca4e4830bee	56832	2019140	8320	32240	31408	0	101113	35184
84.38	23341ca4e4830bee	56832	2019331	8448	32240	31408	0	101113	35184
84.38	23341ca4e4830bee	56816	2019522	8448	32256	31392	0	101113	35088
84.38	23341ca4e4830bee	56816	2019713	8448	32256	31392	0	101117	35088
84.38	23341ca4e4830bee	56816	2019904	8448	32256	31392	0	101123	35088
84.38	23341ca4e4830bee	56816	2020095	8320	32256	31392	0	101107	35184
84.38	23341ca4e4830bee	56816	2020286	8320	32272	31376	0	101121	35184
84.38	23341ca4e4830bee	56816	2020477	8320	32272	31376	0	101115	35184
84.38	23341ca4e4830bee	56816	2020658	8320	32272	31376	0	101115	35184
84.38	23341ca4e4830bee	56816	2020849	8320	32240	31376	0	101123	35248
84.38	23341ca4e4830bee	56816	2021040	8320	32240	31408	0	101121	35248
84.38	23341ca4e4830bee	56816	2021232	8320	32240	31408	0	101115	35248
84.38	23341ca4e4830bee	56816	2021423	8320	32240	31408	0	101123	35248
84.38	23341ca4e4830bee	56816	2021614	8448	32240	31424	0	101113	35024
84.38	23341ca4e4830bee	56816	2021805	8448	32240	31424	0	101121	35024
84.38	23341ca4e4830bee	56816	2021996	8448	32240	31424	0	101113	35024
84.38	23341ca4e4830bee	56816	2022187	8448	32240	31424	0	101117	35024
84.38	23341ca4e4830bee	56816	2022369	8320	32224	31392	0	101121	35120
84.38	23341ca4e4830bee	56816	2022560	8320	32224	31392	0	101111	35120
84.38	23341ca4e4830bee	56816	2022751	8320	32224	31392	0	101107	35120
84.38	23341ca4e4830bee	56816	2023000	8448	32224	31392	0	101113	34976
84.38	23341ca4e4830bee	56816	2023191	8448	32272	31408	0	101121	34976
84.38	23341ca4e4830bee	56816	2023382	8448	32272	31408	0	101125	34976
84.38	23341ca4e4830bee	56816	2023573	8448	32272	31408	0	101111	34976
84.38	23341ca4e4830bee	56816	2023764	8320	32256	31360	0	101121	35264
84.38	23341ca4e4830bee	56816	2023955	8320	32256	31360	0	101117	35264
84.38	23341ca4e4830bee	56816	2024146	8320	32256	31360	0	101113	35264
84.38	23341ca4e4830bee	56816	2024337	8320	32256	31360	0	101121	35264
84.38	23341ca4e4830bee	56800	2024519	8448	32240	31424	0	101113	35040
84.38	23341ca4e4830bee	56800	2024710	8448	32240	31424	0	101119	35040
84.38	23341ca4e4830bee	56800	2024901	8448	32240	31424	0	101115	35040
84.38	23341ca4e4830bee	56800	2025092	8448	32240	31424	0	101119	35040
84.38	23341ca4e4830bee	56800	2025283	8320	32224	31408	0	101115	35136
84.38	23341ca4e4830bee	56800	2025474	8320	32224	31408	0	101117	35136
84.38	23341ca4e4830bee	56800	2025665	8320	32224	31408	0	101107	35136
84.38	23341ca4e4830bee	56800	2025857	8448	32224	31408	0	101119	35136
84.38	23341ca4e4830bee	56800	2026048	8448	32224	31424	0	101113	35024
84.38	23341ca4e4830bee	56800	2026229	8448	32224	31424	0	101113	35024
84.38	23341ca4e4830bee	56800	2026420	8448	32224	31424	0	101117	35024
84.38	23341ca4e4830bee	56800	2026611	8320	32224	31424	0	101117	34976
84.38	23341ca4e4830bee	56800	2026855	8320	32224	31408	0	101113	34976
84.38	23341ca4e4830bee	56800	2027046	8320	32224	31408	0	101117	34976
84.38	23341ca4e4830bee	56800	2027238	8320	32224	31408	0	101121	34976
84.38	23341ca4e4830bee	56800	2027419	8320	32224	31392	0	101105	35056
84.38	23341ca4e4830bee	56800	2027610	8320	32224	31392	0	101117	35056
84.38	23341ca4e4830bee	56800	2027801	8320	32224	31392	0	101117	35056
84.38	23341ca4e4830bee	56800	2027992	8320	32224	31392	0	101111	35056
84.38	23341ca4e4830bee	56800	2028183	8320	32272	31408	0	101117	35296
84.38	23341ca4e4830bee	56800	2028375	8320	32272	31408	0	101121	35296
84.38	23341ca4e4830bee	56800	2028566	8320	32272	31408	0	101117	35296
84.38	23341ca4e4830bee	56800	2028757	8320	32272	31408	0	101117	35024
84.38	23341ca4e4830bee	56800	2028948	8320	32256	31408	0	101117	35024
84.38	23341ca4e4830bee	56800	2029129	8320	32256	31408	0	101113	35024
84.38	23341ca4e4830bee	56800	2029321	8320	32256	31408	0	101115	35024
84.38	23341ca4e4830bee	56800	2029512	8448	32240	31408	0	101117	35296
84.38	23341ca4e4830bee	56800	2029703	8448	32240	31392	0	101117	35296
84.38	23341ca4e4830bee	56800	2029894	8448	32240	31392	0	101111	35296
84.38	23341ca4e4830bee	56800	2030085	8448	32240	31392	0	101111	35296
84.56	23341ca4e4830bee	56800	2030277	8448	32240	31360	0	101119	35120
84.38	23341ca4e4830bee	56800	2030478	8448	32240	31360	0	101111	35120
84.38	23341ca4e4830bee	56800	2030712	8448	32240	31360	0	101115	35120
84.38	23341ca4e4830bee	56800	2030903	8320	32240	31360	0	101115	35120
84.56	23341ca4e4830bee	56800	2031094	8320	32240	31408	0	101113	35104
84.56	23341ca4e4830bee	56800	2031285	8320	32240	31408	0	101117	35104
84.38	23341ca4e4830bee	56800	2031476	8320	32240	31408	0	101105	35104
84.38	23341ca4e4830bee	56800	2031667	8320	32240	31408	0	101115	35168
84.56	23341ca4e4830bee	56800	2031858	8320	32224	31408	0	101117	35168
84.38	23341ca4e4830bee	56800	2032039	8320	32224	31408	0	101109	35168
84.56	23341ca4e4830bee	56800	2032230	8320	32224	31408	0	101117	35168
84.56	23341ca4e4830bee	56800	2032421	8320	32208	31392	0	101119	35296
84.56	23341ca4e4830bee	56800	2032613	8320	32208	31392	0	101113	35296
84.38	23341ca4e4830bee	56800	2032804	8320	32208	31392	0	101113	35296
84.56	23341ca4e4830bee	56800	2032995	8320	32208	31392	0	101117	35296
84.38	23341ca4e4830bee	56784	2033186	8320	32224	31440	0	101109	35056
84.38	23341ca4e4830bee	56784	2033378	8320	32224	31440	0	101109	35056
84.38	23341ca4e4830bee	56784	2033575	8320	32224	31440	0	101113	35056
84.38	23341ca4e4830bee	56784	2033766	8320	32224	31440	0	101115	35056
84.38	23341ca4e4830bee	56784	2033957	8448	32224	31376	0	101117	34960
84.38	23341ca4e4830bee	56784	2034148	8448	32224	31376	0	101111	34960
84.38	23341ca4e4830bee	56784	2034330	8448	32224	31376	0	101111	34960
84.38	23341ca4e4830bee	56800	2034572	8320	32240	31376	0	101115	35056
84.38	23341ca4e4830bee	56800	2034763	8320	32240	31392	0	101115	35056
84.38	23341ca4e4830bee	56800	2034954	8320	32240	31392	0	101117	35056
84.38	23341ca4e4830bee	56800	2035145	8320	32240	31392	0	101117	35056
84.38	23341ca4e4830bee	56784	2035336	8320	32240	31392	0	101123	35040
84.38	23341ca4e4830bee	56784	2035527	8320	32240	31392	0	101115	35040
84.38	23341ca4e4830bee	56784	2035719	8320	32240	31392	0	101111	35040
84.38	23341ca4e4830bee	56784	2035900	8320	32240	31392	0	101115	35040
84.38	23341ca4e4830bee	56784	2036091	8320	32240	31376	0	101117	35360
84.38	23341ca4e4830bee	56784	2036282	8320	32240	31376	0	101115	35360
84.38	23341ca4e4830bee	56784	2036481	8320	32240	31376	0	101111	35360
84.38	23341ca4e4830bee	56784	2036672	8320	32240	31376	0	101113	35360
84.38	23341ca4e4830bee	56784	2036863	8320	32224	31408	0	101115	35344
84.38	23341ca4e4830bee	56784	2037054	8320	32224	31408	0	101115	35344
84.38	23341ca4e4830bee	56784	2037245	8320	32224	31408	0	101109	35344
84.38	23341ca4e4830bee	56784	2037436	8448	32224	31408	0	101121	35136
84.38	23341ca4e4830bee	56784	2037628	8448	32240	31408	0	101127	35136
84.38	23341ca4e4830bee	56784	2037819	8448	32240	31408	0	101123	35136
84.38	23341ca4e4830bee	56784	2038000	8448	32240	31408	0	101111	35136
84.38	23341ca4e4830bee	56784	2038192	8320	32208	31440	0	101115	35168