Digit_temp	id	light	timestamp	acc_z	acc_y	acc_x	motion	pressure	humid
83.66	23341ca4e4830bee	56832	1599381	8320	32256	31392	0	101115	35104
83.66	23341ca4e4830bee	56832	1599571	8320	32256	31392	0	101113	35104
83.66	23341ca4e4830bee	56832	1599762	8320	32256	31392	0	101113	35104
83.66	23341ca4e4830bee	56832	1599943	8320	32256	31392	0	101109	35104
83.66	23341ca4e4830bee	56832	1600134	8192	32224	31392	0	101107	34944
83.66	23341ca4e4830bee	56832	1600326	8192	32224	31392	0	101113	34944
83.66	23341ca4e4830bee	56832	1600517	8192	32224	31392	0	101113	34944
83.66	23341ca4e4830bee	56832	1600708	8320	32224	31392	0	101107	34944
83.66	23341ca4e4830bee	56832	1600899	8320	32256	31392	0	101107	35312
83.66	23341ca4e4830bee	56832	1601090	8320	32256	31392	0	101121	35312
83.66	23341ca4e4830bee	56832	1601281	8320	32256	31392	0	101119	35312
83.66	23341ca4e4830bee	56832	1601477	8320	32256	31392	0	101109	35328
83.66	23341ca4e4830bee	56832	1601668	8320	32240	31392	0	101109	35328
83.66	23341ca4e4830bee	56832	1601859	8320	32240	31392	0	101107	35328
83.66	23341ca4e4830bee	56832	1602050	8320	32240	31392	0	101113	35328
83.66	23341ca4e4830bee	56832	1602241	8320	32224	31408	0	101113	35328
83.66	23341ca4e4830bee	56832	1602437	8320	32224	31408	0	101113	35328
83.66	23341ca4e4830bee	56832	1602629	8320	32224	31408	0	101115	35328
83.66	23341ca4e4830bee	56832	1602820	8320	32224	31408	0	101109	35328
83.66	23341ca4e4830bee	56832	1603011	8320	32224	31408	0	101115	35344
83.66	23341ca4e4830bee	56832	1603244	8320	32224	31408	0	101121	35344
83.66	23341ca4e4830bee	56832	1603440	8320	32224	31408	0	101109	35344
83.66	23341ca4e4830bee	56832	1603631	8448	32224	31408	0	101117	35200
83.66	23341ca4e4830bee	56832	1603822	8448	32256	31392	0	101121	35200
83.66	23341ca4e4830bee	56832	1604013	8448	32256	31392	0	101115	35200
83.66	23341ca4e4830bee	56832	1604194	8448	32256	31392	0	101105	35200
83.66	23341ca4e4830bee	56832	1604385	8320	32240	31392	0	101109	35152
83.66	23341ca4e4830bee	56832	1604576	8320	32240	31376	0	101115	35152
83.66	23341ca4e4830bee	56832	1604767	8320	32240	31376	0	101115	35152
83.48	23341ca4e4830bee	56832	1604958	8320	32240	31376	0	101103	35152
83.66	23341ca4e4830bee	56832	1605150	8320	32224	31392	0	101105	35152
83.48	23341ca4e4830bee	56832	1605341	8320	32224	31392	0	101095	35152
83.48	23341ca4e4830bee	56832	1605532	8320	32224	31392	0	101109	35152
83.48	23341ca4e4830bee	56832	1605723	8320	32224	31392	0	101115	35152
83.66	23341ca4e4830bee	56832	1605904	8320	32256	31376	0	101117	34960
83.66	23341ca4e4830bee	56832	1606095	8320	32256	31376	0	101119	34960
83.48	23341ca4e4830bee	56832	1606289	8320	32256	31376	0	101115	34960
83.48	23341ca4e4830bee	56832	1606481	8320	32256	31376	0	101113	34960
83.48	23341ca4e4830bee	56832	1606672	8320	32240	31392	0	101115	35344
83.66	23341ca4e4830bee	56832	1606863	8320	32240	31392	0	101115	35344
83.48	23341ca4e4830bee	56832	1607100	8320	32240	31392	0	101109	35344
83.66	23341ca4e4830bee	56832	1607291	8320	32256	31408	0	101113	35280
83.48	23341ca4e4830bee	56832	1607482	8320	32256	31408	0	101103	35280
83.48	23341ca4e4830bee	56832	1607673	8320	32256	31408	0	101109	35280
83.48	23341ca4e4830bee	56832	1607854	8320	32256	31408	0	101113	35280
83.66	23341ca4e4830bee	56832	1608045	8320	32240	31392	0	101109	35008
83.48	23341ca4e4830bee	56832	1608236	8320	32240	31392	0	101109	35008
83.48	23341ca4e4830bee	56832	1608427	8320	32240	31392	0	101103	35008
83.48	23341ca4e4830bee	56832	1608618	8320	32240	31392	0	101113	35008
83.48	23341ca4e4830bee	56848	1608810	8320	32224	31408	0	101107	34976
83.48	23341ca4e4830bee	56848	1609001	8320	32224	31408	0	101095	34976
83.48	23341ca4e4830bee	56848	1609192	8320	32224	31408	0	101095	34976
83.48	23341ca4e4830bee	56848	1609383	8320	32224	31408	0	101103	34976
83.48	23341ca4e4830bee	56832	1609564	8320	32256	31424	0	101109	35312
83.48	23341ca4e4830bee	56832	1609755	8320	32256	31424	0	101107	35312
83.48	23341ca4e4830bee	56832	1609946	8320	32256	31424	0	101103	35312
83.48	23341ca4e4830bee	56832	1610138	8320	32256	31424	0	101113	35216
83.48	23341ca4e4830bee	56832	1610330	8320	32256	31392	0	101109	35216
83.48	23341ca4e4830bee	56832	1610521	8320	32256	31392	0	101117	35216
83.48	23341ca4e4830bee	56832	1610712	8320	32256	31392	0	101109	35216
83.48	23341ca4e4830bee	56848	1610943	8320	32240	31392	0	101111	35184
83.48	23341ca4e4830bee	56848	1611124	8320	32240	31392	0	101103	35184
83.48	23341ca4e4830bee	56848	1611315	8320	32240	31392	0	101109	35184
83.48	23341ca4e4830bee	56848	1611507	8320	32240	31392	0	101101	35184
83.48	23341ca4e4830bee	56832	1611698	8320	32224	31360	0	101107	34976
83.48	23341ca4e4830bee	56832	1611889	8320	32224	31360	0	101113	34976
83.48	23341ca4e4830bee	56832	1612080	8320	32224	31360	0	101101	34976
83.48	23341ca4e4830bee	56832	1612271	8320	32224	31360	0	101101	34976
83.48	23341ca4e4830bee	56848	1612462	8320	32240	31392	0	101107	35088
83.48	23341ca4e4830bee	56848	1612653	8320	32240	31392	0	101103	35088
83.48	23341ca4e4830bee	56848	1612835	8320	32240	31392	0	101109	35088
83.48	23341ca4e4830bee	56848	1613026	8320	32240	31392	0	101109	35008
83.48	23341ca4e4830bee	56832	1613217	8320	32208	31424	0	101105	35008
83.48	23341ca4e4830bee	56832	1613408	8320	32208	31424	0	101119	35008
83.48	23341ca4e4830bee	56832	1613599	8320	32208	31424	0	101109	35008
83.48	23341ca4e4830bee	56832	1613791	8320	32272	31360	0	101113	35296
83.48	23341ca4e4830bee	56832	1613982	8320	32272	31360	0	101111	35296
83.48	23341ca4e4830bee	56832	1614173	8320	32272	31360	0	101105	35296
83.48	23341ca4e4830bee	56832	1614354	8320	32272	31360	0	101103	35296
83.48	23341ca4e4830bee	56848	1614546	8320	32208	31392	0	101101	34976
83.48	23341ca4e4830bee	56848	1614788	8320	32208	31392	0	101095	34976
83.48	23341ca4e4830bee	56848	1614979	8320	32208	31392	0	101117	34976
83.48	23341ca4e4830bee	56848	1615170	8320	32208	31392	0	101111	34976
83.48	23341ca4e4830bee	56832	1615361	8320	32224	31376	0	101103	35120
83.48	23341ca4e4830bee	56832	1615560	8320	32224	31376	0	101113	35120
83.48	23341ca4e4830bee	56832	1615751	8320	32224	31376	0	101123	35120
83.48	23341ca4e4830bee	56848	1615942	8320	32224	31376	0	101115	35216
83.48	23341ca4e4830bee	56848	1616134	8320	32224	31376	0	101117	35216
83.48	23341ca4e4830bee	56848	1616322	8320	32224	31376	0	101109	35216
83.48	23341ca4e4830bee	56848	1616513	8320	32224	31376	0	101113	35216
83.48	23341ca4e4830bee	56848	1616704	8320	32224	31376	0	101113	34992
83.48	23341ca4e4830bee	56848	1616885	8320	32224	31376	0	101115	34992
83.48	23341ca4e4830bee	56848	1617077	8320	32224	31376	0	101109	34992
83.48	23341ca4e4830bee	56848	1617268	8320	32224	31376	0	101109	34992
83.48	23341ca4e4830bee	56832	1617459	8320	32224	31408	0	101109	35232
83.48	23341ca4e4830bee	56832	1617650	8320	32224	31408	0	101107	35232
83.48	23341ca4e4830bee	56832	1617842	8320	32224	31408	0	101109	35232
83.48	23341ca4e4830bee	56832	1618033	8320	32224	31408	0	101107	35232
83.48	23341ca4e4830bee	56848	1618224	8320	32256	31408	0	101101	35072
83.48	23341ca4e4830bee	56848	1618405	8320	32256	31408	0	101113	35072
83.3	23341ca4e4830bee	56848	1618641	8320	32256	31408	0	101103	35072
83.48	23341ca4e4830bee	56848	1618832	8320	32208	31408	0	101119	35264
83.48	23341ca4e4830bee	56848	1619023	8320	32208	31392	0	101113	35264
83.48	23341ca4e4830bee	56848	1619214	8320	32208	31392	0	101113	35264
83.48	23341ca4e4830bee	56848	1619395	8320	32208	31392	0	101115	35264
83.48	23341ca4e4830bee	56848	1619587	8320	32240	31360	0	101109	34944
83.48	23341ca4e4830bee	56848	1619778	8320	32240	31360	0	101109	34944
83.3	23341ca4e4830bee	56848	1619969	8320	32240	31360	0	101109	34944
83.48	23341ca4e4830bee	56848	1620161	8320	32240	31360	0	101119	34944
83.48	23341ca4e4830bee	56848	1620352	8320	32224	31376	0	101121	35152
83.3	23341ca4e4830bee	56848	1620543	8320	32224	31376	0	101109	35152
83.48	23341ca4e4830bee	56848	1620734	8320	32224	31376	0	101113	35152
83.3	23341ca4e4830bee	56848	1620915	8320	32224	31376	0	101109	35152
83.3	23341ca4e4830bee	56848	1621106	8320	32208	31392	0	101105	35168
83.3	23341ca4e4830bee	56848	1621297	8320	32208	31392	0	101113	35168
83.3	23341ca4e4830bee	56848	1621489	8320	32208	31392	0	101105	35168
83.3	23341ca4e4830bee	56848	1621680	8320	32208	31392	0	101109	35168
83.3	23341ca4e4830bee	56848	1621871	8320	32256	31408	0	101113	35264
83.3	23341ca4e4830bee	56848	1622062	8320	32256	31408	0	101101	35264
83.3	23341ca4e4830bee	56848	1622253	8320	32256	31408	0	101105	35264
83.3	23341ca4e4830bee	56848	1622489	8320	32240	31408	0	101119	35040
83.3	23341ca4e4830bee	56848	1622680	8320	32240	31408	0	101111	35040
83.3	23341ca4e4830bee	56848	1622871	8320	32240	31408	0	101119	35040
83.3	23341ca4e4830bee	56848	1623062	8320	32240	31408	0	101113	35040
83.3	23341ca4e4830bee	56848	1623253	8320	32208	31360	0	101113	35104
83.3	23341ca4e4830bee	56848	1623444	8320	32208	31360	0	101117	35104
83.3	23341ca4e4830bee	56848	1623635	8320	32208	31360	0	101113	35104
83.3	23341ca4e4830bee	56848	1623816	8320	32208	31360	0	101113	35104
83.3	23341ca4e4830bee	56848	1624007	8320	32208	31376	0	101107	34928
83.3	23341ca4e4830bee	56848	1624198	8320	32208	31376	0	101111	34928
83.3	23341ca4e4830bee	56848	1624389	8320	32208	31376	0	101107	34928
83.3	23341ca4e4830bee	56848	1624581	8320	32208	31376	0	101113	35344
83.3	23341ca4e4830bee	56848	1624772	8320	32240	31376	0	101115	35344
83.3	23341ca4e4830bee	56848	1624963	8320	32240	31376	0	101113	35344
83.3	23341ca4e4830bee	56848	1625154	8320	32240	31376	0	101109	35344
83.3	23341ca4e4830bee	56848	1625336	8320	32272	31376	0	101113	35072
83.3	23341ca4e4830bee	56848	1625527	8320	32272	31376	0	101115	35072
83.3	23341ca4e4830bee	56848	1625719	8320	32272	31376	0	101107	35072
83.3	23341ca4e4830bee	56848	1625910	8320	32272	31376	0	101119	35072
83.3	23341ca4e4830bee	56848	1626101	8320	32240	31392	0	101119	35024
83.3	23341ca4e4830bee	56848	1626345	8320	32240	31392	0	101113	35024
83.3	23341ca4e4830bee	56848	1626526	8320	32240	31392	0	101107	35024
83.3	23341ca4e4830bee	56848	1626717	8320	32240	31392	0	101107	35024
83.3	23341ca4e4830bee	56848	1626909	8320	32224	31392	0	101105	35232
83.3	23341ca4e4830bee	56848	1627100	8320	32224	31392	0	101111	35232
83.3	23341ca4e4830bee	56848	1627291	8320	32224	31392	0	101111	35232
83.3	23341ca4e4830bee	56848	1627494	8320	32224	31392	0	101107	35328
83.3	23341ca4e4830bee	56848	1627685	8320	32256	31392	0	101115	35328
83.3	23341ca4e4830bee	56848	1627866	8320	32256	31392	0	101111	35328
83.3	23341ca4e4830bee	56848	1628057	8320	32256	31392	0	101123	35328
83.3	23341ca4e4830bee	56848	1628248	8320	32224	31392	0	101115	35072
83.3	23341ca4e4830bee	56848	1628440	8320	32224	31392	0	101115	35072
83.3	23341ca4e4830bee	56848	1628631	8320	32224	31392	0	101115	35072
83.3	23341ca4e4830bee	56848	1628822	8320	32224	31392	0	101111	35072
83.3	23341ca4e4830bee	56848	1629013	8320	32256	31376	0	101111	35088
83.3	23341ca4e4830bee	56848	1629204	8320	32256	31376	0	101105	35088
83.3	23341ca4e4830bee	56848	1629395	8320	32256	31376	0	101105	35088
83.3	23341ca4e4830bee	56848	1629577	8320	32256	31376	0	101121	35088
83.3	23341ca4e4830bee	56848	1629768	8320	32256	31392	0	101115	35264
83.3	23341ca4e4830bee	56848	1629959	8320	32256	31392	0	101109	35264
83.3	23341ca4e4830bee	56848	1630208	8320	32256	31392	0	101115	35264
83.3	23341ca4e4830bee	56848	1630399	8320	32272	31392	0	101109	34944
83.3	23341ca4e4830bee	56848	1630590	8320	32272	31392	0	101107	34944
83.3	23341ca4e4830bee	56848	1630781	8320	32272	31392	0	101119	34944
83.3	23341ca4e4830bee	56848	1630981	8320	32272	31392	0	101113	34944
83.3	23341ca4e4830bee	56848	1631172	8320	32256	31392	0	101109	35232
83.3	23341ca4e4830bee	56848	1631363	8320	32256	31392	0	101113	35232
83.3	23341ca4e4830bee	56848	1631555	8320	32256	31392	0	101107	35232
83.3	23341ca4e4830bee	56848	1631750	8320	32256	31392	0	101113	35232
83.3	23341ca4e4830bee	56848	1631941	8320	32208	31408	0	101115	35264
83.3	23341ca4e4830bee	56848	1632132	8320	32208	31408	0	101103	35264
83.3	23341ca4e4830bee	56848	1632324	8320	32208	31408	0	101103	35264
83.3	23341ca4e4830bee	56848	1632515	8320	32208	31408	0	101103	35264
83.3	23341ca4e4830bee	56848	1632706	8320	32256	31392	0	101111	35056
83.3	23341ca4e4830bee	56848	1632887	8320	32256	31392	0	101103	35056
83.3	23341ca4e4830bee	56848	1633078	8320	32256	31392	0	101115	35056
83.3	23341ca4e4830bee	56848	1633270	8320	32256	31392	0	101115	34976
83.3	23341ca4e4830bee	56848	1633469	8320	32272	31376	0	101109	34976
83.3	23341ca4e4830bee	56848	1633660	8320	32272	31376	0	101111	34976
83.3	23341ca4e4830bee	56848	1633851	8320	32272	31376	0	101107	34976
83.3	23341ca4e4830bee	56848	1634083	8192	32256	31392	0	101117	35104
83.3	23341ca4e4830bee	56848	1634274	8192	32256	31392	0	101119	35104
83.3	23341ca4e4830bee	56848	1634477	8192	32256	31392	0	101115	35104
83.3	23341ca4e4830bee	56848	1634668	8320	32256	31392	0	101113	35104
83.3	23341ca4e4830bee	56848	1634859	8320	32256	31392	0	101107	35136
83.3	23341ca4e4830bee	56848	1635050	8320	32256	31392	0	101119	35136
83.3	23341ca4e4830bee	56848	1635241	8320	32256	31392	0	101111	35136
83.3	23341ca4e4830bee	56848	1635432	8320	32256	31392	0	101105	35280
83.3	23341ca4e4830bee	56848	1635624	8320	32208	31376	0	101117	35280
83.3	23341ca4e4830bee	56848	1635815	8320	32208	31376	0	101117	35280
83.3	23341ca4e4830bee	56848	1636006	8320	32208	31376	0	101107	35280
83.3	23341ca4e4830bee	56848	1636197	8320	32256	31376	0	101119	35024
83.3	23341ca4e4830bee	56848	1636388	8320	32256	31376	0	101119	35024
83.3	23341ca4e4830bee	56848	1636580	8320	32256	31376	0	101107	35024
83.3	23341ca4e4830bee	56848	1636771	8320	32256	31376	0	101113	35024
83.3	23341ca4e4830bee	56848	1636962	8192	32256	31408	0	101115	35312
83.3	23341ca4e4830bee	56848	1637153	8192	32256	31408	0	101105	35312
83.3	23341ca4e4830bee	56848	1637344	8192	32256	31408	0	101119	35312
83.3	23341ca4e4830bee	56848	1637535	8192	32256	31408	0	101113	35312
83.3	23341ca4e4830bee	56848	1637727	8320	32224	31376	0	101109	35296
83.3	23341ca4e4830bee	56848	1637962	8320	32224	31376	0	101115	35296
83.3	23341ca4e4830bee	56848	1638153	8320	32224	31376	0	101113	35296
83.3	23341ca4e4830bee	56848	1638344	8320	32224	31376	0	101113	35056
83.3	23341ca4e4830bee	56848	1638535	8320	32224	31360	0	101107	35056
83.3	23341ca4e4830bee	56848	1638726	8320	32224	31360	0	101101	35056
83.3	23341ca4e4830bee	56848	1638908	8320	32224	31360	0	101107	35056
83.3	23341ca4e4830bee	56848	1639099	8320	32208	31392	0	101107	35312
83.3	23341ca4e4830bee	56848	1639290	8320	32208	31392	0	101113	35312
83.3	23341ca4e4830bee	56848	1639481	8320	32208	31392	0	101113	35312
83.3	23341ca4e4830bee	56848	1639672	8320	32208	31392	0	101101	35312
83.3	23341ca4e4830bee	56848	1639863	8320	32256	31376	0	101105	34992
83.3	23341ca4e4830bee	56848	1640054	8320	32256	31376	0	101113	34992
83.3	23341ca4e4830bee	56848	1640245	8320	32256	31376	0	101113	34992
83.3	23341ca4e4830bee	56848	1640436	8320	32256	31376	0	101113	34992
83.3	23341ca4e4830bee	56864	1640618	8320	32224	31376	0	101107	35184
83.3	23341ca4e4830bee	56864	1640809	8320	32224	31376	0	101109	35184
83.3	23341ca4e4830bee	56864	1641000	8320	32224	31376	0	101111	35184
83.3	23341ca4e4830bee	56864	1641191	8320	32224	31376	0	101109	35072
83.3	23341ca4e4830bee	56864	1641382	8320	32224	31408	0	101109	35072
83.3	23341ca4e4830bee	56864	1641574	8320	32224	31408	0	101117	35072
83.3	23341ca4e4830bee	56864	1641814	8320	32224	31408	0	101111	35072
83.3	23341ca4e4830bee	56864	1642005	8320	32240	31392	0	101109	35360
83.3	23341ca4e4830bee	56864	1642196	8320	32240	31392	0	101115	35360
83.3	23341ca4e4830bee	56864	1642387	8320	32240	31392	0	101109	35360
83.48	23341ca4e4830bee	56864	1642568	8320	32240	31392	0	101125	35360
83.3	23341ca4e4830bee	56864	1642759	8320	32240	31376	0	101105	35296
83.48	23341ca4e4830bee	56864	1642951	8320	32240	31376	0	101113	35296
83.3	23341ca4e4830bee	56864	1643142	8320	32240	31376	0	101123	35296
83.3	23341ca4e4830bee	56864	1643333	8192	32240	31376	0	101119	35296
83.3	23341ca4e4830bee	56896	1643533	8192	32208	31360	0	101113	35072
83.3	23341ca4e4830bee	56896	1643724	8192	32208	31360	0	101115	35072
83.3	23341ca4e4830bee	56896	1643915	8192	32208	31360	0	101105	35072
83.3	23341ca4e4830bee	57200	1644106	8320	32208	31360	0	101111	35344
83.3	23341ca4e4830bee	57200	1644297	8320	32224	31408	1	101107	35344
83.3	23341ca4e4830bee	57200	1644479	8320	32224	31408	1	101111	35344
83.3	23341ca4e4830bee	57200	1644670	8320	32224	31408	1	101113	35344
83.3	23341ca4e4830bee	57600	1644861	8192	32224	31408	0	101107	35328
83.3	23341ca4e4830bee	57600	1645052	8192	32224	31408	0	101125	35328
83.3	23341ca4e4830bee	57600	1645243	8192	32224	31408	1	101111	35328
83.3	23341ca4e4830bee	57600	1645435	8192	32224	31408	1	101111	35328
83.3	23341ca4e4830bee	56896	1645669	8320	32224	31376	1	101105	35024
83.3	23341ca4e4830bee	56896	1645860	8320	32224	31376	1	101107	35024
83.3	23341ca4e4830bee	56896	1646051	8320	32224	31376	0	101105	35024
83.3	23341ca4e4830bee	56896	1646242	8320	32224	31376	0	101117	35024
83.3	23341ca4e4830bee	56880	1646433	8320	32240	31392	0	101117	35136
83.3	23341ca4e4830bee	56880	1646624	8320	32240	31392	0	101113	35136
83.3	23341ca4e4830bee	56880	1646815	8320	32240	31392	0	101107	35136
83.3	23341ca4e4830bee	56864	1647007	8320	32240	31392	0	101107	35120
83.3	23341ca4e4830bee	56864	1647198	8320	32240	31392	0	101113	35120
83.3	23341ca4e4830bee	56864	1647379	8320	32240	31392	0	101107	35120
83.3	23341ca4e4830bee	56864	1647570	8320	32240	31392	0	101125	35120
83.3	23341ca4e4830bee	56880	1647761	8320	32240	31392	0	101107	34960
83.3	23341ca4e4830bee	56880	1647952	8320	32240	31392	0	101113	34960
83.3	23341ca4e4830bee	56880	1648143	8320	32240	31392	0	101111	34960
83.3	23341ca4e4830bee	56880	1648335	8320	32240	31392	0	101111	34960
83.3	23341ca4e4830bee	56864	1648526	8320	32208	31376	0	101109	35024
83.48	23341ca4e4830bee	56864	1648717	8320	32208	31376	0	101113	35024
83.3	23341ca4e4830bee	56864	1648899	8320	32208	31376	0	101109	35024
83.3	23341ca4e4830bee	56864	1649090	8320	32208	31376	0	101119	35024
83.3	23341ca4e4830bee	56864	1649281	8320	32224	31408	0	101113	35376
83.3	23341ca4e4830bee	56864	1649522	8320	32224	31408	0	101113	35376
83.3	23341ca4e4830bee	56864	1649713	8320	32224	31408	0	101111	35376
83.3	23341ca4e4830bee	56864	1649905	8320	32208	31408	0	101117	35344
83.3	23341ca4e4830bee	56864	1650096	8320	32208	31360	0	101109	35344
83.3	23341ca4e4830bee	56864	1650307	8320	32208	31360	0	101113	35344
83.3	23341ca4e4830bee	56864	1650498	8320	32208	31360	0	101113	35344
83.3	23341ca4e4830bee	56880	1650689	8320	32224	31392	0	101105	35232
83.3	23341ca4e4830bee	56880	1650870	8320	32224	31392	0	101103	35232
83.3	23341ca4e4830bee	56880	1651061	8320	32224	31392	0	101111	35232
83.3	23341ca4e4830bee	56880	1651252	8320	32224	31392	0	101113	35232
83.3	23341ca4e4830bee	56864	1651451	8320	32256	31408	0	101113	35040
83.3	23341ca4e4830bee	56864	1651642	8320	32256	31408	0	101109	35040
83.3	23341ca4e4830bee	56864	1651834	8320	32256	31408	0	101111	35040
83.3	23341ca4e4830bee	56864	1652025	8320	32256	31408	0	101111	35088
83.3	23341ca4e4830bee	56880	1652216	8320	32240	31392	0	101109	35088
83.3	23341ca4e4830bee	56880	1652407	8320	32240	31392	0	101115	35088
83.3	23341ca4e4830bee	56880	1652599	8320	32240	31392	0	101113	35088
83.3	23341ca4e4830bee	56864	1652780	8320	32240	31392	0	101117	35216
83.3	23341ca4e4830bee	56864	1652971	8320	32224	31376	0	101113	35216
83.3	23341ca4e4830bee	56864	1653162	8320	32224	31376	0	101117	35216
83.3	23341ca4e4830bee	56864	1653404	8320	32224	31376	0	101109	35216
83.3	23341ca4e4830bee	56864	1653595	8320	32224	31408	0	101115	35088
83.3	23341ca4e4830bee	56864	1653786	8320	32224	31408	0	101109	35088
83.48	23341ca4e4830bee	56864	1653977	8320	32224	31408	0	101119	35088
83.3	23341ca4e4830bee	56864	1654168	8320	32224	31408	0	101109	35088
83.48	23341ca4e4830bee	56864	1654359	8320	32224	31376	0	101115	35104
83.48	23341ca4e4830bee	56864	1654550	8320	32224	31376	0	101109	35104
83.3	23341ca4e4830bee	56864	1654742	8320	32224	31376	0	101111	35104
83.48	23341ca4e4830bee	56848	1654933	8320	32224	31376	0	101113	35264
83.48	23341ca4e4830bee	56848	1655124	8320	32224	31376	0	101113	35264
83.48	23341ca4e4830bee	56848	1655315	8320	32224	31376	0	101117	35264
83.48	23341ca4e4830bee	56848	1655506	8320	32224	31376	0	101107	35264
83.48	23341ca4e4830bee	56864	1655697	8320	32240	31392	0	101107	34992
83.48	23341ca4e4830bee	56864	1655888	8320	32240	31392	0	101113	34992
83.3	23341ca4e4830bee	56864	1656079	8320	32240	31392	0	101109	34992
83.3	23341ca4e4830bee	56864	1656271	8320	32240	31392	0	101117	34992
83.3	23341ca4e4830bee	56864	1656462	8320	32256	31392	0	101111	35184
83.48	23341ca4e4830bee	56864	1656653	8320	32256	31392	0	101121	35184
83.3	23341ca4e4830bee	56864	1656844	8320	32256	31392	0	101117	35184
83.3	23341ca4e4830bee	56864	1657036	8320	32256	31392	0	101105	35184
83.3	23341ca4e4830bee	56848	1657268	8320	32272	31392	0	101111	35248
83.3	23341ca4e4830bee	56848	1657459	8320	32272	31392	0	101105	35248
83.3	23341ca4e4830bee	56848	1657640	8320	32272	31392	0	101111	35248
83.3	23341ca4e4830bee	56864	1657832	8320	32272	31392	0	101107	34976
83.3	23341ca4e4830bee	56864	1658023	8320	32224	31392	0	101107	34976
83.3	23341ca4e4830bee	56864	1658214	8320	32224	31392	0	101107	34976
83.3	23341ca4e4830bee	56864	1658405	8320	32224	31392	0	101117	34976
83.3	23341ca4e4830bee	56848	1658596	8320	32224	31424	0	101113	35328
83.3	23341ca4e4830bee	56848	1658787	8320	32224	31424	0	101121	35328
83.3	23341ca4e4830bee	56848	1658978	8320	32224	31424	0	101113	35328
83.3	23341ca4e4830bee	56848	1659169	8320	32224	31424	0	101119	35328
83.3	23341ca4e4830bee	56848	1659351	8320	32240	31392	0	101107	34960
83.3	23341ca4e4830bee	56848	1659542	8320	32240	31392	0	101113	34960
83.3	23341ca4e4830bee	56848	1659733	8320	32240	31392	0	101119	34960
83.3	23341ca4e4830bee	56848	1659924	8320	32240	31392	0	101107	34960
83.3	23341ca4e4830bee	56848	1660115	8320	32256	31392	0	101113	35040
83.3	23341ca4e4830bee	56848	1660306	8320	32256	31392	0	101113	35040
83.3	23341ca4e4830bee	56848	1660505	8320	32256	31392	0	101113	35040
83.3	23341ca4e4830bee	56848	1660696	8192	32256	31392	0	101099	35008
83.3	23341ca4e4830bee	56848	1660888	8192	32240	31360	0	101119	35008
83.3	23341ca4e4830bee	56848	1661119	8192	32240	31360	0	101119	35008
83.3	23341ca4e4830bee	56848	1661310	8192	32240	31360	0	101119	35008
83.3	23341ca4e4830bee	56848	1661491	8320	32240	31376	0	101119	34960
83.3	23341ca4e4830bee	56848	1661682	8320	32240	31376	0	101109	34960
83.3	23341ca4e4830bee	56848	1661873	8320	32240	31376	0	101119	34960
83.3	23341ca4e4830bee	56848	1662064	8320	32240	31376	0	101119	34960
83.3	23341ca4e4830bee	56848	1662255	8192	32240	31376	0	101119	34928
83.3	23341ca4e4830bee	56848	1662446	8192	32240	31376	0	101101	34928
83.3	23341ca4e4830bee	56848	1662637	8192	32240	31376	0	101113	34928
83.3	23341ca4e4830bee	56848	1662828	8320	32240	31376	0	101101	34928
83.3	23341ca4e4830bee	56848	1663019	8320	32240	31344	0	101113	35040
83.3	23341ca4e4830bee	56848	1663200	8320	32240	31344	0	101117	35040
83.3	23341ca4e4830bee	56848	1663392	8320	32240	31344	0	101121	35040
83.3	23341ca4e4830bee	56848	1663583	8320	32240	31344	0	101111	35104
83.3	23341ca4e4830bee	56848	1663774	8320	32240	31392	0	101109	35104
83.3	23341ca4e4830bee	56848	1663965	8320	32240	31392	0	101117	35104
83.3	23341ca4e4830bee	56848	1664157	8320	32240	31392	0	101111	35104
83.3	23341ca4e4830bee	56848	1664348	8320	32256	31392	0	101105	35152
83.3	23341ca4e4830bee	56848	1664539	8320	32256	31360	0	101111	35152
83.3	23341ca4e4830bee	56848	1664730	8320	32256	31360	0	101113	35152
83.3	23341ca4e4830bee	56848	1664973	8320	32256	31360	0	101113	35152
83.3	23341ca4e4830bee	56848	1665164	8320	32240	31376	0	101109	35296
83.3	23341ca4e4830bee	56848	1665356	8320	32240	31376	0	101109	35296
83.3	23341ca4e4830bee	56848	1665547	8320	32240	31376	0	101105	35296
83.3	23341ca4e4830bee	56848	1665738	8320	32240	31376	0	101101	35296
83.3	23341ca4e4830bee	56848	1665929	8320	32240	31392	0	101111	35344
83.3	23341ca4e4830bee	56848	1666120	8320	32240	31392	0	101105	35344
83.3	23341ca4e4830bee	56848	1666310	8320	32240	31392	0	101107	35344
83.3	23341ca4e4830bee	56848	1666501	8320	32240	31392	0	101117	34960
83.3	23341ca4e4830bee	56848	1666692	8320	32240	31408	0	101111	34960
83.3	23341ca4e4830bee	56848	1666883	8320	32240	31408	0	101115	34960
83.3	23341ca4e4830bee	56848	1667074	8320	32240	31408	0	101113	34960
83.3	23341ca4e4830bee	56848	1667265	8320	32224	31392	0	101109	35328
83.3	23341ca4e4830bee	56848	1667456	8320	32224	31392	0	101113	35328
83.3	23341ca4e4830bee	56848	1667647	8320	32224	31392	0	101115	35328
83.3	23341ca4e4830bee	56848	1667839	8320	32224	31392	0	101107	35328
83.3	23341ca4e4830bee	56832	1668030	8320	32256	31392	0	101109	34992
83.3	23341ca4e4830bee	56832	1668212	8320	32256	31392	0	101113	34992
83.3	23341ca4e4830bee	56832	1668403	8320	32256	31392	0	101109	34992
83.3	23341ca4e4830bee	56832	1668594	8320	32256	31392	0	101107	34992
83.3	23341ca4e4830bee	56848	1668834	8320	32208	31376	0	101107	35296
83.3	23341ca4e4830bee	56848	1669025	8320	32208	31376	0	101109	35296
83.3	23341ca4e4830bee	56848	1669216	8320	32208	31376	0	101121	35296
83.3	23341ca4e4830bee	56848	1669407	8320	32240	31376	0	101111	35008
83.3	23341ca4e4830bee	56848	1669598	8320	32240	31360	0	101113	35008
83.3	23341ca4e4830bee	56848	1669789	8320	32240	31360	0	101109	35008
83.3	23341ca4e4830bee	56848	1669980	8320	32240	31360	0	101109	35008
83.3	23341ca4e4830bee	56832	1670161	8320	32224	31392	0	101117	35264
83.3	23341ca4e4830bee	56832	1670353	8320	32224	31392	0	101113	35264
83.3	23341ca4e4830bee	56832	1670544	8320	32224	31392	0	101101	35264
83.3	23341ca4e4830bee	56832	1670735	8320	32224	31392	0	101111	35264
83.3	23341ca4e4830bee	56848	1670940	8320	32256	31376	0	101111	34992
83.3	23341ca4e4830bee	56848	1671131	8320	32256	31376	0	101103	34992
83.3	23341ca4e4830bee	56848	1671312	8320	32256	31376	0	101113	34992
83.3	23341ca4e4830bee	56848	1671503	8320	32256	31376	0	101113	34992
83.3	23341ca4e4830bee	56848	1671694	8320	32240	31328	0	101115	35312
83.3	23341ca4e4830bee	56848	1671886	8320	32240	31328	0	101119	35312
83.3	23341ca4e4830bee	56848	1672077	8320	32240	31328	0	101117	35312
83.3	23341ca4e4830bee	56832	1672268	8192	32240	31328	0	101111	35328
83.3	23341ca4e4830bee	56832	1672472	8192	32224	31360	0	101099	35328
83.3	23341ca4e4830bee	56832	1672717	8192	32224	31360	0	101105	35328
83.3	23341ca4e4830bee	56832	1672908	8192	32224	31360	0	101107	35328
83.3	23341ca4e4830bee	56848	1673099	8320	32208	31392	0	101117	34944
83.3	23341ca4e4830bee	56848	1673290	8320	32208	31392	0	101111	34944
83.3	23341ca4e4830bee	56848	1673490	8320	32208	31392	0	101119	34944
83.3	23341ca4e4830bee	56848	1673682	8320	32208	31392	0	101113	34944
83.3	23341ca4e4830bee	56832	1673873	8320	32224	31376	0	101115	35104
83.3	23341ca4e4830bee	56832	1674064	8320	32224	31376	0	101115	35104
83.3	23341ca4e4830bee	56832	1674255	8320	32224	31376	0	101099	35104
83.3	23341ca4e4830bee	56848	1674446	8320	32224	31376	0	101107	35296
83.3	23341ca4e4830bee	56848	1674637	8320	32240	31392	0	101109	35296
83.3	23341ca4e4830bee	56848	1674828	8320	32240	31392	0	101117	35296
83.3	23341ca4e4830bee	56848	1675019	8320	32240	31392	0	101115	35296
83.3	23341ca4e4830bee	56848	1675210	8320	32240	31392	0	101109	35200
83.12	23341ca4e4830bee	56848	1675402	8320	32240	31392	0	101105	35200
83.12	23341ca4e4830bee	56848	1675593	8320	32240	31392	0	101111	35200
83.12	23341ca4e4830bee	56848	1675784	8320	32240	31392	0	101107	35200
83.12	23341ca4e4830bee	56832	1675975	8192	32224	31376	0	101107	34992
83.12	23341ca4e4830bee	56832	1676167	8192	32224	31376	0	101103	34992
83.12	23341ca4e4830bee	56832	1676358	8192	32224	31376	0	101113	34992
83.12	23341ca4e4830bee	56848	1676602	8320	32224	31376	0	101111	35360
83.12	23341ca4e4830bee	56848	1676783	8320	32240	31392	0	101111	35360
83.12	23341ca4e4830bee	56848	1676974	8320	32240	31392	0	101117	35360
83.12	23341ca4e4830bee	56848	1677165	8320	32240	31392	0	101111	35360
83.12	23341ca4e4830bee	56848	1677356	8320	32240	31360	0	101111	34976
83.12	23341ca4e4830bee	56848	1677547	8320	32240	31360	0	101111	34976
83.12	23341ca4e4830bee	56848	1677738	8320	32240	31360	0	101117	34976
83.12	23341ca4e4830bee	56848	1677929	8320	32240	31360	0	101109	34976
83.12	23341ca4e4830bee	56832	1678120	8320	32224	31392	0	101109	35088
83.12	23341ca4e4830bee	56832	1678312	8320	32224	31392	0	101111	35088
83.12	23341ca4e4830bee	56832	1678493	8320	32224	31392	0	101109	35088
83.12	23341ca4e4830bee	56832	1678684	8320	32224	31392	0	101105	35088
83.12	23341ca4e4830bee	56848	1678875	8320	32224	31392	0	101109	35296
83.12	23341ca4e4830bee	56848	1679066	8320	32224	31392	0	101105	35296
83.12	23341ca4e4830bee	56848	1679257	8320	32224	31392	0	101111	35296
83.12	23341ca4e4830bee	56848	1679448	8320	32224	31392	0	101117	35296
83.12	23341ca4e4830bee	56832	1679640	8320	32224	31376	0	101111	35104
83.12	23341ca4e4830bee	56832	1679831	8320	32224	31376	0	101105	35104
83.12	23341ca4e4830bee	56832	1680022	8320	32224	31376	0	101105	35104
83.12	23341ca4e4830bee	56848	1680213	8320	32224	31376	0	101115	35040
83.12	23341ca4e4830bee	56848	1680453	8320	32256	31392	0	101115	35040
83.12	23341ca4e4830bee	56848	1680644	8320	32256	31392	0	101117	35040
83.12	23341ca4e4830bee	56848	1680835	8320	32256	31392	0	101111	35040
83.12	23341ca4e4830bee	56848	1681027	8320	32256	31408	0	101119	35264
83.12	23341ca4e4830bee	56848	1681218	8320	32256	31408	0	101123	35264
83.12	23341ca4e4830bee	56848	1681409	8320	32256	31408	0	101111	35264
83.12	23341ca4e4830bee	56848	1681600	8320	32256	31408	0	101113	35264
83.12	23341ca4e4830bee	56832	1681791	8320	32208	31408	0	101113	35104
83.12	23341ca4e4830bee	56832	1681982	8320	32208	31408	0	101107	35104
83.12	23341ca4e4830bee	56832	1682163	8320	32208	31408	0	101101	35104
83.12	23341ca4e4830bee	56832	1682354	8320	32208	31408	0	101113	35104
83.12	23341ca4e4830bee	56848	1682545	8320	32224	31376	0	101115	35024
83.12	23341ca4e4830bee	56848	1682736	8320	32224	31376	0	101121	35024
83.12	23341ca4e4830bee	56848	1682928	8320	32224	31376	0	101101	35024
83.12	23341ca4e4830bee	56832	1683119	8320	32224	31376	0	101105	35344
83.12	23341ca4e4830bee	56832	1683310	8320	32240	31376	0	101113	35344
83.12	23341ca4e4830bee	56832	1683501	8320	32240	31376	0	101111	35344
83.12	23341ca4e4830bee	56832	1683692	8320	32240	31376	0	101113	35344
83.12	23341ca4e4830bee	56832	1683884	8320	32224	31424	0	101111	35200
83.12	23341ca4e4830bee	56832	1684075	8320	32224	31424	0	101111	35200
83.12	23341ca4e4830bee	56832	1684316	8320	32224	31424	0	101111	35200
83.12	23341ca4e4830bee	56832	1684507	8320	32224	31424	0	101111	35200
83.12	23341ca4e4830bee	56848	1684698	8320	32208	31376	0	101105	35216
83.12	23341ca4e4830bee	56848	1684889	8320	32208	31376	0	101109	35216
83.12	23341ca4e4830bee	56848	1685080	8320	32208	31376	0	101113	35216
83.12	23341ca4e4830bee	56832	1685271	8320	32208	31376	0	101121	35344
83.12	23341ca4e4830bee	56832	1685462	8320	32256	31360	0	101099	35344
83.12	23341ca4e4830bee	56832	1685643	8320	32256	31360	0	101111	35344
83.12	23341ca4e4830bee	56832	1685835	8320	32256	31360	0	101115	35344
83.12	23341ca4e4830bee	56832	1686026	8320	32208	31376	0	101111	34976
83.12	23341ca4e4830bee	56832	1686217	8320	32208	31376	0	101105	34976
83.12	23341ca4e4830bee	56832	1686408	8320	32208	31376	0	101107	34976
83.12	23341ca4e4830bee	56832	1686599	8320	32208	31376	0	101115	34976
83.12	23341ca4e4830bee	56832	1686790	8192	32256	31376	0	101105	35280
83.12	23341ca4e4830bee	56832	1686982	8192	32256	31376	0	101111	35280
83.12	23341ca4e4830bee	56832	1687173	8192	32256	31376	0	101117	35280
83.12	23341ca4e4830bee	56832	1687364	8192	32256	31376	0	101117	35280
83.12	23341ca4e4830bee	56832	1687555	8320	32240	31392	0	101111	35328
83.12	23341ca4e4830bee	56832	1687746	8320	32240	31392	0	101121	35328
83.12	23341ca4e4830bee	56832	1687938	8320	32240	31392	0	101115	35328
83.12	23341ca4e4830bee	56832	1688175	8320	32240	31392	0	101107	35088
83.12	23341ca4e4830bee	56832	1688366	8320	32240	31392	0	101111	35088
83.12	23341ca4e4830bee	56832	1688557	8320	32240	31392	0	101109	35088
83.12	23341ca4e4830bee	56832	1688748	8320	32240	31392	0	101117	35088
83.12	23341ca4e4830bee	56832	1688939	8320	32256	31376	0	101099	34960
83.12	23341ca4e4830bee	56832	1689130	8320	32256	31376	0	101111	34960
83.12	23341ca4e4830bee	56832	1689322	8320	32256	31376	0	101115	34960
83.12	23341ca4e4830bee	56832	1689513	8320	32256	31376	0	101111	34960
83.12	23341ca4e4830bee	56832	1689694	8192	32256	31392	0	101111	35280
83.12	23341ca4e4830bee	56832	1689885	8192	32256	31392	0	101121	35280
83.12	23341ca4e4830bee	56832	1690076	8192	32256	31392	0	101111	35280
83.12	23341ca4e4830bee	56832	1690267	8192	32256	31392	0	101109	35280
83.12	23341ca4e4830bee	56832	1690459	8320	32256	31392	0	101111	35168
83.12	23341ca4e4830bee	56832	1690650	8320	32256	31392	0	101117	35168
83.12	23341ca4e4830bee	56832	1690841	8320	32256	31392	0	101105	35168
83.12	23341ca4e4830bee	56832	1691032	8320	32256	31392	0	101111	34976
83.12	23341ca4e4830bee	56832	1691214	8320	32240	31392	0	101107	34976
83.12	23341ca4e4830bee	56832	1691405	8320	32240	31392	0	101117	34976
83.12	23341ca4e4830bee	56832	1691596	8320	32240	31392	0	101117	34976
83.12	23341ca4e4830bee	56832	1691787	8320	32240	31392	0	101111	35056
83.12	23341ca4e4830bee	56832	1692027	8320	32256	31408	0	101117	35056
83.12	23341ca4e4830bee	56832	1692218	8320	32256	31408	0	101109	35056
83.12	23341ca4e4830bee	56832	1692410	8320	32256	31408	0	101105	35056
83.12	23341ca4e4830bee	56832	1692601	8192	32224	31360	0	101113	35360
83.12	23341ca4e4830bee	56832	1692792	8192	32224	31360	0	101111	35360
83.12	23341ca4e4830bee	56832	1692983	8192	32224	31360	0	101117	35360
83.12	23341ca4e4830bee	56832	1693164	8192	32224	31360	0	101113	35360
83.12	23341ca4e4830bee	56832	1693355	8192	32272	31392	0	101109	35024
83.12	23341ca4e4830bee	56832	1693546	8192	32272	31392	0	101115	35024
83.12	23341ca4e4830bee	56832	1693749	8192	32272	31392	0	101119	35024
83.12	23341ca4e4830bee	56832	1693940	8320	32272	31392	0	101113	35264
83.12	23341ca4e4830bee	56832	1694131	8320	32256	31392	0	101117	35264
83.12	23341ca4e4830bee	56832	1694322	8320	32256	31392	0	101109	35264
83.12	23341ca4e4830bee	56832	1694522	8320	32256	31392	0	101117	35264
83.12	23341ca4e4830bee	56832	1694713	8320	32256	31408	0	101117	35328
83.12	23341ca4e4830bee	56832	1694895	8320	32256	31408	0	101119	35328
83.12	23341ca4e4830bee	56832	1695086	8320	32256	31408	0	101109	35328
83.12	23341ca4e4830bee	56832	1695284	8320	32256	31408	0	101115	35328
83.12	23341ca4e4830bee	56816	1695484	8320	32256	31360	0	101113	35216
83.12	23341ca4e4830bee	56816	1695675	8320	32256	31360	0	101111	35216
83.12	23341ca4e4830bee	56816	1695916	8320	32256	31360	0	101115	35216
83.12	23341ca4e4830bee	56832	1696107	8320	32256	31360	0	101107	34976
83.12	23341ca4e4830bee	56832	1696299	8320	32240	31408	0	101115	34976
83.12	23341ca4e4830bee	56832	1696495	8320	32240	31408	0	101109	34976
83.12	23341ca4e4830bee	56832	1696686	8320	32240	31408	0	101121	34976
83.12	23341ca4e4830bee	56832	1696877	8320	32224	31392	0	101121	35312
83.12	23341ca4e4830bee	56832	1697068	8320	32224	31392	0	101113	35312
83.12	23341ca4e4830bee	56832	1697266	8320	32224	31392	0	101115	35312
83.12	23341ca4e4830bee	56832	1697457	8320	32224	31392	0	101119	35312
83.12	23341ca4e4830bee	56816	1697649	8320	32240	31408	0	101115	35296
83.12	23341ca4e4830bee	56816	1697840	8320	32240	31408	0	101109	35296
83.12	23341ca4e4830bee	56816	1698036	8320	32240	31408	0	101109	35296
83.12	23341ca4e4830bee	56816	1698227	8320	32240	31408	0	101109	35296
83.12	23341ca4e4830bee	56832	1698418	8320	32240	31376	0	101115	35072
83.12	23341ca4e4830bee	56832	1698609	8320	32240	31376	0	101115	35072
83.12	23341ca4e4830bee	56832	1698800	8320	32240	31376	0	101117	35072
83.12	23341ca4e4830bee	56816	1698992	8320	32240	31376	0	101111	35136
83.12	23341ca4e4830bee	56816	1699183	8320	32240	31392	0	101105	35136
83.12	23341ca4e4830bee	56816	1699374	8320	32240	31392	0	101121	35136
83.12	23341ca4e4830bee	56816	1699555	8320	32240	31392	0	101113	35136
83.12	23341ca4e4830bee	56816	1699798	8320	32240	31408	0	101117	35344
83.12	23341ca4e4830bee	56816	1699989	8320	32240	31408	0	101111	35344
83.12	23341ca4e4830bee	56816	1700180	8320	32240	31408	0	101107	35344
83.12	23341ca4e4830bee	56816	1700371	8320	32240	31408	0	101111	35344
83.12	23341ca4e4830bee	56832	1700562	8320	32240	31408	0	101115	35184
83.12	23341ca4e4830bee	56832	1700753	8320	32240	31408	0	101113	35184
83.12	23341ca4e4830bee	56832	1700944	8320	32240	31408	0	101121	35184
83.12	23341ca4e4830bee	56832	1701125	8192	32240	31408	0	101113	35184
83.12	23341ca4e4830bee	56816	1701316	8192	32240	31360	0	101117	35024
83.12	23341ca4e4830bee	56816	1701508	8192	32240	31360	0	101109	35024
83.12	23341ca4e4830bee	56816	1701699	8192	32240	31360	0	101109	35024
83.12	23341ca4e4830bee	56816	1701890	8192	32240	31360	0	101107	35088
83.12	23341ca4e4830bee	56816	1702081	8192	32224	31392	0	101115	35088
83.12	23341ca4e4830bee	56816	1702272	8192	32224	31392	0	101109	35088
83.12	23341ca4e4830bee	56816	1702463	8192	32224	31392	0	101111	35088
83.12	23341ca4e4830bee	56816	1702654	8192	32256	31328	0	101111	35184
83.12	23341ca4e4830bee	56816	1702836	8192	32256	31328	0	101115	35184
83.12	23341ca4e4830bee	56816	1703027	8192	32256	31328	0	101121	35184
83.12	23341ca4e4830bee	56816	1703218	8192	32256	31328	0	101117	35184
83.12	23341ca4e4830bee	56816	1703409	8320	32288	31376	0	101109	34976
83.12	23341ca4e4830bee	56816	1703650	8320	32288	31376	0	101115	34976
83.12	23341ca4e4830bee	56816	1703842	8320	32288	31376	0	101105	34976
83.12	23341ca4e4830bee	56816	1704033	8320	32288	31376	0	101109	34976
83.12	23341ca4e4830bee	56832	1704224	8320	32240	31408	0	101115	35264
83.12	23341ca4e4830bee	56832	1704415	8320	32240	31408	0	101109	35264
83.12	23341ca4e4830bee	56832	1704606	8320	32240	31408	0	101109	35264
83.12	23341ca4e4830bee	56816	1704797	8320	32224	31408	0	101105	35104
83.12	23341ca4e4830bee	56816	1704988	8320	32224	31392	0	101113	35104
83.12	23341ca4e4830bee	56816	1705179	8320	32224	31392	0	101115	35104
83.12	23341ca4e4830bee	56816	1705370	8320	32224	31392	0	101109	35104
83.12	23341ca4e4830bee	56816	1705562	8320	32256	31376	0	101119	35024
83.12	23341ca4e4830bee	56816	1705753	8320	32256	31376	0	101103	35024
83.12	23341ca4e4830bee	56816	1705944	8320	32256	31376	0	101115	35024
83.12	23341ca4e4830bee	56816	1706135	8320	32256	31376	0	101105	35024
83.12	23341ca4e4830bee	56816	1706326	8320	32256	31376	0	101103	34976
83.12	23341ca4e4830bee	56816	1706517	8320	32256	31376	0	101115	34976
83.12	23341ca4e4830bee	56816	1706709	8320	32256	31376	0	101111	34976
83.12	23341ca4e4830bee	56816	1706900	8320	32256	31376	0	101117	34976
83.12	23341ca4e4830bee	56816	1707091	8320	32240	31376	0	101111	35376
83.12	23341ca4e4830bee	56816	1707283	8320	32240	31376	0	101113	35376
83.12	23341ca4e4830bee	56816	1707516	8320	32240	31376	0	101109	35376
83.12	23341ca4e4830bee	56816	1707707	8320	32240	31376	0	101109	34976
83.12	23341ca4e4830bee	56816	1707898	8320	32240	31376	0	101119	34976
83.12	23341ca4e4830bee	56816	1708089	8320	32240	31376	0	101113	34976
83.12	23341ca4e4830bee	56816	1708280	8320	32240	31376	0	101109	34976
83.12	23341ca4e4830bee	56816	1708471	8192	32256	31392	0	101111	34960
83.12	23341ca4e4830bee	56816	1708662	8192	32256	31392	0	101113	34960
83.12	23341ca4e4830bee	56816	1708853	8192	32256	31392	0	101115	34960
83.12	23341ca4e4830bee	56816	1709044	8192	32256	31392	0	101109	34960
83.12	23341ca4e4830bee	56816	1709236	8320	32256	31376	0	101107	34944
83.12	23341ca4e4830bee	56816	1709427	8320	32256	31376	0	101107	34944
83.12	23341ca4e4830bee	56816	1709618	8320	32256	31376	0	101107	34944
83.12	23341ca4e4830bee	56816	1709809	8320	32256	31376	0	101113	34944
83.12	23341ca4e4830bee	56816	1710000	8320	32272	31392	0	101109	35312
83.12	23341ca4e4830bee	56816	1710191	8320	32272	31392	0	101117	35312
83.12	23341ca4e4830bee	56816	1710382	8320	32272	31392	0	101103	35312
83.12	23341ca4e4830bee	56816	1710574	8320	32240	31392	0	101113	35296
83.12	23341ca4e4830bee	56816	1710765	8320	32240	31392	0	101109	35296
83.12	23341ca4e4830bee	56816	1710946	8320	32240	31392	0	101117	35296
83.12	23341ca4e4830bee	56816	1711137	8320	32240	31392	0	101109	35296
83.12	23341ca4e4830bee	56800	1711380	8320	32208	31376	0	101113	35008
83.12	23341ca4e4830bee	56800	1711571	8320	32208	31376	0	101107	35008
83.12	23341ca4e4830bee	56800	1711762	8320	32208	31376	0	101111	35008
83.3	23341ca4e4830bee	56800	1711953	8320	32208	31376	0	101117	35008
83.3	23341ca4e4830bee	56816	1712144	8320	32240	31392	0	101111	35248
83.3	23341ca4e4830bee	56816	1712335	8320	32240	31392	0	101109	35248
83.3	23341ca4e4830bee	56816	1712516	8320	32240	31392	0	101109	35248
83.3	23341ca4e4830bee	56816	1712707	8320	32240	31392	0	101109	35088
83.3	23341ca4e4830bee	56816	1712898	8320	32256	31344	0	101123	35088
83.3	23341ca4e4830bee	56816	1713090	8320	32256	31344	0	101115	35088
83.3	23341ca4e4830bee	56816	1713281	8320	32256	31344	0	101111	35088
83.3	23341ca4e4830bee	56800	1713478	8320	32224	31376	0	101119	34992
83.3	23341ca4e4830bee	56800	1713669	8320	32224	31376	0	101121	34992
83.3	23341ca4e4830bee	56800	1713861	8320	32224	31376	0	101115	34992
83.3	23341ca4e4830bee	56800	1714052	8320	32224	31376	0	101105	34992
83.3	23341ca4e4830bee	56816	1714243	8320	32256	31392	0	101105	35344
83.3	23341ca4e4830bee	56816	1714434	8320	32256	31392	0	101119	35344
83.3	23341ca4e4830bee	56816	1714625	8320	32256	31392	0	101117	35344
83.3	23341ca4e4830bee	56816	1714807	8320	32256	31392	0	101119	35344
83.3	23341ca4e4830bee	56800	1714998	8320	32240	31376	0	101119	35264