Digit_temp	id	light	timestamp	acc_z	acc_y	acc_x	motion	pressure	humid
84.02	23341ca4e4830bee	56272	961223	8320	32240	31392	0	101125	35072
84.02	23341ca4e4830bee	56272	961423	8320	32240	31392	0	101121	35072
84.02	23341ca4e4830bee	56272	961614	8320	32240	31392	0	101117	35072
84.02	23341ca4e4830bee	56272	961805	8320	32240	31392	0	101117	35072
84.02	23341ca4e4830bee	56272	961996	8320	32208	31344	0	101109	35232
84.02	23341ca4e4830bee	56272	962187	8320	32208	31344	0	101115	35232
84.02	23341ca4e4830bee	56272	962378	8320	32208	31344	0	101115	35232
84.02	23341ca4e4830bee	56272	962569	8320	32208	31344	0	101117	35232
84.02	23341ca4e4830bee	56272	962760	8320	32256	31408	0	101111	35232
84.02	23341ca4e4830bee	56272	962951	8320	32256	31408	0	101119	35232
84.02	23341ca4e4830bee	56272	963142	8320	32256	31408	0	101119	35232
84.02	23341ca4e4830bee	56272	963333	8320	32256	31408	0	101115	35344
84.02	23341ca4e4830bee	56272	963524	8320	32208	31392	0	101115	35344
84.02	23341ca4e4830bee	56272	963715	8320	32208	31392	0	101117	35344
84.02	23341ca4e4830bee	56272	963906	8320	32208	31392	0	101119	35344
84.02	23341ca4e4830bee	56272	964097	8320	32272	31424	0	101117	35104
84.02	23341ca4e4830bee	56272	964288	8320	32272	31424	0	101115	35104
84.02	23341ca4e4830bee	56272	964480	8320	32272	31424	0	101111	35104
84.02	23341ca4e4830bee	56272	964661	8320	32272	31424	0	101115	35104
84.02	23341ca4e4830bee	56288	964852	8320	32240	31376	0	101111	34944
84.02	23341ca4e4830bee	56288	965093	8320	32240	31376	0	101109	34944
84.02	23341ca4e4830bee	56288	965284	8320	32240	31376	0	101111	34944
84.02	23341ca4e4830bee	56288	965475	8320	32240	31376	0	101115	35264
84.02	23341ca4e4830bee	56272	965666	8320	32240	31392	0	101117	35264
84.02	23341ca4e4830bee	56272	965857	8320	32240	31392	0	101115	35264
84.02	23341ca4e4830bee	56272	966048	8320	32240	31392	0	101115	35264
84.02	23341ca4e4830bee	56272	966239	8320	32208	31424	0	101109	35056
84.02	23341ca4e4830bee	56272	966421	8320	32208	31424	0	101109	35056
84.02	23341ca4e4830bee	56272	966612	8320	32208	31424	0	101111	35056
84.02	23341ca4e4830bee	56272	966803	8320	32208	31424	0	101107	35056
84.02	23341ca4e4830bee	56288	966994	8320	32224	31440	0	101111	35312
84.02	23341ca4e4830bee	56288	967185	8320	32224	31440	0	101119	35312
84.02	23341ca4e4830bee	56288	967376	8320	32224	31440	0	101115	35312
84.02	23341ca4e4830bee	56288	967567	8320	32224	31440	0	101125	35312
84.02	23341ca4e4830bee	56272	967758	8320	32192	31376	0	101113	35024
84.02	23341ca4e4830bee	56272	967950	8320	32192	31376	0	101115	35024
84.02	23341ca4e4830bee	56272	968131	8320	32192	31376	0	101107	35024
84.2	23341ca4e4830bee	56272	968322	8320	32192	31376	0	101119	35024
84.02	23341ca4e4830bee	56288	968513	8320	32256	31408	0	101107	35040
84.02	23341ca4e4830bee	56288	968704	8320	32256	31408	0	101113	35040
84.02	23341ca4e4830bee	56288	968951	8320	32256	31408	0	101115	35040
84.2	23341ca4e4830bee	56288	969142	8320	32192	31408	0	101111	35280
84.2	23341ca4e4830bee	56288	969333	8320	32192	31408	0	101121	35280
84.02	23341ca4e4830bee	56288	969524	8320	32192	31408	0	101119	35280
84.02	23341ca4e4830bee	56288	969715	8320	32192	31408	0	101115	35280
84.2	23341ca4e4830bee	56288	969917	8320	32256	31376	0	101123	35088
84.2	23341ca4e4830bee	56288	970108	8320	32256	31376	0	101121	35088
84.2	23341ca4e4830bee	56288	970299	8320	32256	31376	0	101113	35088
84.2	23341ca4e4830bee	56288	970490	8320	32256	31376	0	101109	35088
84.2	23341ca4e4830bee	56288	970671	8320	32224	31392	0	101101	35088
84.2	23341ca4e4830bee	56288	970863	8320	32224	31392	0	101111	35088
84.2	23341ca4e4830bee	56288	971054	8320	32224	31392	0	101121	35088
84.2	23341ca4e4830bee	56288	971245	8320	32224	31392	0	101113	34960
84.2	23341ca4e4830bee	56288	971436	8320	32224	31392	0	101109	34960
84.2	23341ca4e4830bee	56288	971627	8320	32224	31392	0	101115	34960
84.2	23341ca4e4830bee	56288	971818	8320	32224	31392	0	101109	34960
84.2	23341ca4e4830bee	56288	972009	8320	32224	31392	0	101107	35328
84.2	23341ca4e4830bee	56288	972201	8320	32224	31360	0	101113	35328
84.2	23341ca4e4830bee	56288	972392	8320	32224	31360	0	101121	35328
84.2	23341ca4e4830bee	56288	972583	8320	32224	31360	0	101113	35328
84.2	23341ca4e4830bee	56304	972816	8320	32256	31376	0	101103	35344
84.2	23341ca4e4830bee	56304	973007	8320	32256	31376	0	101113	35344
84.2	23341ca4e4830bee	56304	973198	8320	32256	31376	0	101113	35344
84.2	23341ca4e4830bee	56304	973389	8320	32256	31376	0	101109	35344
84.2	23341ca4e4830bee	56288	973580	8320	32256	31408	0	101115	35120
84.2	23341ca4e4830bee	56288	973761	8320	32256	31408	0	101113	35120
84.2	23341ca4e4830bee	56288	973952	8320	32256	31408	0	101115	35120
84.2	23341ca4e4830bee	56288	974144	8320	32256	31408	0	101113	35328
84.2	23341ca4e4830bee	56304	974335	8320	32192	31392	0	101113	35328
84.2	23341ca4e4830bee	56304	974526	8320	32192	31392	0	101113	35328
84.2	23341ca4e4830bee	56304	974717	8320	32192	31392	0	101119	35328
84.2	23341ca4e4830bee	56304	974908	8320	32240	31376	0	101113	35280
84.2	23341ca4e4830bee	56304	975099	8320	32240	31376	0	101115	35280
84.2	23341ca4e4830bee	56304	975291	8320	32240	31376	0	101115	35280
84.2	23341ca4e4830bee	56304	975472	8320	32240	31376	0	101113	35280
84.2	23341ca4e4830bee	56304	975663	8320	32224	31408	0	101127	34992
84.2	23341ca4e4830bee	56304	975854	8320	32224	31408	0	101117	34992
84.2	23341ca4e4830bee	56304	976045	8320	32224	31408	0	101123	34992
84.2	23341ca4e4830bee	56304	976237	8320	32224	31408	0	101113	34992
84.2	23341ca4e4830bee	56304	976428	8320	32240	31392	0	101111	34960
84.2	23341ca4e4830bee	56304	976659	8320	32240	31392	0	101123	34960
84.2	23341ca4e4830bee	56304	976850	8320	32240	31392	0	101113	34960
84.2	23341ca4e4830bee	56304	977041	8320	32240	31392	0	101121	34976
84.2	23341ca4e4830bee	56304	977222	8320	32192	31392	0	101117	34976
84.2	23341ca4e4830bee	56304	977413	8320	32192	31392	0	101117	34976
84.2	23341ca4e4830bee	56304	977604	8320	32192	31392	0	101105	34976
84.2	23341ca4e4830bee	56304	977795	8320	32208	31392	0	101117	35296
84.2	23341ca4e4830bee	56304	977995	8320	32208	31392	0	101111	35296
84.2	23341ca4e4830bee	56304	978187	8320	32208	31392	0	101111	35296
84.2	23341ca4e4830bee	56304	978378	8320	32208	31392	0	101117	35296
84.2	23341ca4e4830bee	56320	978569	8320	32240	31408	0	101123	35184
84.2	23341ca4e4830bee	56320	978760	8320	32240	31408	0	101107	35184
84.2	23341ca4e4830bee	56320	978951	8320	32240	31408	0	101113	35184
84.2	23341ca4e4830bee	56320	979132	8320	32240	31408	0	101121	35184
84.2	23341ca4e4830bee	56304	979323	8320	32224	31424	0	101121	34960
84.2	23341ca4e4830bee	56304	979515	8320	32224	31424	0	101109	34960
84.2	23341ca4e4830bee	56304	979706	8320	32224	31424	0	101113	34960
84.2	23341ca4e4830bee	56304	979897	8320	32224	31424	0	101123	34960
84.2	23341ca4e4830bee	56320	980088	8320	32240	31392	0	101115	35008
84.2	23341ca4e4830bee	56320	980280	8320	32240	31392	0	101119	35008
84.2	23341ca4e4830bee	56320	980512	8320	32240	31392	0	101113	35008
84.2	23341ca4e4830bee	56320	980703	8320	32208	31408	0	101111	35056
84.2	23341ca4e4830bee	56320	980894	8320	32208	31408	0	101109	35056
84.2	23341ca4e4830bee	56320	981085	8320	32208	31408	0	101113	35056
84.2	23341ca4e4830bee	56320	981287	8320	32208	31408	0	101109	35056
84.2	23341ca4e4830bee	56320	981478	8320	32208	31392	0	101107	35072
84.2	23341ca4e4830bee	56320	981669	8320	32208	31392	0	101109	35072
84.2	23341ca4e4830bee	56320	981861	8320	32208	31392	0	101109	35072
84.2	23341ca4e4830bee	56320	982052	8320	32208	31392	0	101115	35072
84.2	23341ca4e4830bee	56336	982233	8320	32208	31376	0	101115	35072
84.2	23341ca4e4830bee	56336	982424	8320	32208	31376	0	101119	35072
84.2	23341ca4e4830bee	56336	982615	8320	32208	31376	0	101113	35072
84.2	23341ca4e4830bee	56336	982806	8320	32208	31376	0	101113	35072
84.2	23341ca4e4830bee	56320	982997	8320	32224	31392	0	101109	35072
84.2	23341ca4e4830bee	56320	983188	8320	32224	31392	0	101107	35072
84.2	23341ca4e4830bee	56320	983391	8320	32224	31392	0	101121	35072
84.2	23341ca4e4830bee	56336	983573	8320	32240	31408	0	101109	35264
84.2	23341ca4e4830bee	56336	983764	8320	32240	31408	0	101123	35264
84.2	23341ca4e4830bee	56336	983955	8320	32240	31408	0	101117	35264
84.2	23341ca4e4830bee	56336	984146	8320	32240	31408	0	101107	35264
84.2	23341ca4e4830bee	56336	984391	8320	32224	31360	0	101113	35024
84.2	23341ca4e4830bee	56336	984573	8320	32224	31360	0	101115	35024
84.2	23341ca4e4830bee	56336	984764	8320	32224	31360	0	101119	35024
84.2	23341ca4e4830bee	56336	984955	8320	32224	31360	0	101113	35024
84.2	23341ca4e4830bee	56336	985146	8320	32256	31360	0	101115	35328
84.2	23341ca4e4830bee	56336	985337	8320	32256	31360	0	101107	35328
84.2	23341ca4e4830bee	56336	985528	8320	32256	31360	0	101123	35328
84.2	23341ca4e4830bee	56336	985719	8320	32256	31360	0	101115	34992
84.2	23341ca4e4830bee	56336	985910	8320	32224	31392	0	101113	34992
84.2	23341ca4e4830bee	56336	986101	8320	32224	31392	0	101121	34992
84.2	23341ca4e4830bee	56336	986283	8320	32224	31392	0	101109	34992
84.2	23341ca4e4830bee	56352	986474	8320	32240	31440	0	101103	35072
84.2	23341ca4e4830bee	56352	986666	8320	32240	31440	0	101115	35072
84.2	23341ca4e4830bee	56352	986857	8320	32240	31440	0	101115	35072
84.2	23341ca4e4830bee	56352	987048	8320	32240	31440	0	101109	35072
84.2	23341ca4e4830bee	56336	987239	8320	32256	31392	0	101109	35040
84.2	23341ca4e4830bee	56336	987430	8320	32256	31392	0	101115	35040
84.2	23341ca4e4830bee	56336	987621	8320	32256	31392	0	101121	35040
84.2	23341ca4e4830bee	56336	987803	8320	32256	31392	0	101107	35040
84.2	23341ca4e4830bee	56352	987994	8320	32256	31392	0	101119	35152
84.2	23341ca4e4830bee	56352	988233	8320	32256	31392	0	101115	35152
84.2	23341ca4e4830bee	56352	988424	8320	32256	31392	0	101115	35152
84.2	23341ca4e4830bee	56352	988615	8320	32256	31392	0	101113	35232
84.2	23341ca4e4830bee	56352	988806	8320	32224	31392	0	101113	35232
84.2	23341ca4e4830bee	56352	988997	8320	32224	31392	0	101121	35232
84.2	23341ca4e4830bee	56352	989189	8320	32224	31392	0	101119	35232
84.2	23341ca4e4830bee	56352	989380	8320	32224	31344	0	101123	35024
84.2	23341ca4e4830bee	56352	989571	8320	32224	31344	0	101109	35024
84.2	23341ca4e4830bee	56352	989762	8320	32224	31344	0	101113	35024
84.2	23341ca4e4830bee	56352	989943	8320	32224	31344	0	101123	35024
84.2	23341ca4e4830bee	56368	990134	8320	32224	31360	0	101117	35264
84.2	23341ca4e4830bee	56368	990329	8320	32224	31360	0	101117	35264
84.2	23341ca4e4830bee	56368	990520	8320	32224	31360	0	101123	35264
84.2	23341ca4e4830bee	56368	990711	8320	32224	31360	0	101127	35264
84.2	23341ca4e4830bee	56352	990902	8320	32192	31392	0	101123	34992
84.2	23341ca4e4830bee	56352	991083	8320	32192	31392	0	101131	34992
84.2	23341ca4e4830bee	56352	991275	8320	32192	31392	0	101113	34992
84.2	23341ca4e4830bee	56352	991466	8320	32192	31392	0	101109	34992
84.2	23341ca4e4830bee	56368	991658	8320	32240	31408	0	101107	35056
84.2	23341ca4e4830bee	56368	991849	8320	32240	31408	0	101115	35056
84.2	23341ca4e4830bee	56368	992093	8320	32240	31408	0	101111	35056
84.2	23341ca4e4830bee	56368	992274	8320	32224	31376	0	101107	35296
84.2	23341ca4e4830bee	56368	992465	8320	32224	31376	0	101111	35296
84.2	23341ca4e4830bee	56368	992656	8320	32224	31376	0	101123	35296
84.2	23341ca4e4830bee	56368	992847	8320	32224	31376	0	101115	35296
84.2	23341ca4e4830bee	56368	993038	8320	32224	31392	0	101113	35008
84.2	23341ca4e4830bee	56368	993229	8320	32224	31392	0	101107	35008
84.2	23341ca4e4830bee	56368	993420	8320	32224	31392	0	101113	35008
84.2	23341ca4e4830bee	56368	993611	8320	32224	31392	0	101107	35008
84.2	23341ca4e4830bee	56384	993802	8320	32208	31392	0	101115	35344
84.2	23341ca4e4830bee	56384	993984	8320	32208	31392	0	101109	35344
84.2	23341ca4e4830bee	56384	994175	8320	32208	31392	0	101121	35344
84.2	23341ca4e4830bee	56384	994366	8320	32208	31392	0	101113	35088
84.2	23341ca4e4830bee	56384	994557	8320	32256	31360	0	101115	35088
84.2	23341ca4e4830bee	56384	994748	8320	32256	31360	0	101103	35088
84.2	23341ca4e4830bee	56384	994939	8320	32256	31360	0	101113	35088
84.2	23341ca4e4830bee	56384	995131	8320	32240	31376	0	101115	35056
84.2	23341ca4e4830bee	56384	995322	8320	32240	31376	0	101119	35056
84.2	23341ca4e4830bee	56384	995513	8320	32240	31376	0	101119	35056
84.2	23341ca4e4830bee	56384	995694	8320	32240	31376	0	101113	35056
84.2	23341ca4e4830bee	56384	995939	8320	32256	31392	0	101109	35024
84.2	23341ca4e4830bee	56384	996130	8320	32256	31392	0	101113	35024
84.2	23341ca4e4830bee	56384	996321	8320	32256	31392	0	101107	35024
84.2	23341ca4e4830bee	56384	996512	8320	32256	31392	0	101121	35024
84.2	23341ca4e4830bee	56384	996703	8320	32256	31408	0	101115	34976
84.2	23341ca4e4830bee	56384	996884	8320	32256	31408	0	101107	34976
84.2	23341ca4e4830bee	56384	997075	8320	32256	31408	0	101109	34976
84.2	23341ca4e4830bee	56400	997266	8320	32256	31408	0	101109	34960
84.2	23341ca4e4830bee	56400	997457	8320	32240	31376	0	101115	34960
84.2	23341ca4e4830bee	56400	997648	8320	32240	31376	0	101115	34960
84.2	23341ca4e4830bee	56400	997839	8320	32240	31376	0	101109	34960
84.2	23341ca4e4830bee	56400	998031	8320	32224	31408	0	101109	35328
84.2	23341ca4e4830bee	56400	998222	8320	32224	31408	0	101119	35328
84.2	23341ca4e4830bee	56400	998425	8320	32224	31408	0	101119	35328
84.2	23341ca4e4830bee	56400	998616	8320	32224	31408	0	101109	35328
84.2	23341ca4e4830bee	56400	998807	8448	32224	31408	0	101113	34976
84.2	23341ca4e4830bee	56400	998999	8448	32224	31408	0	101117	34976
84.2	23341ca4e4830bee	56400	999190	8448	32224	31408	0	101115	34976
84.2	23341ca4e4830bee	56400	999381	8320	32224	31408	0	101121	34976
84.2	23341ca4e4830bee	56416	999572	8320	32288	31360	0	101109	35088
84.2	23341ca4e4830bee	56416	999802	8320	32288	31360	0	101117	35088
84.2	23341ca4e4830bee	56416	999993	8320	32288	31360	0	101121	35088
84.2	23341ca4e4830bee	56416	1000184	8320	32208	31360	0	101109	34992
84.2	23341ca4e4830bee	56416	1000375	8320	32208	31408	0	101115	34992
84.2	23341ca4e4830bee	56416	1000566	8320	32208	31408	0	101115	34992
84.2	23341ca4e4830bee	56416	1000757	8320	32208	31408	0	101101	34992
84.2	23341ca4e4830bee	56416	1000948	8320	32224	31376	0	101121	35120
84.2	23341ca4e4830bee	56416	1001139	8320	32224	31376	0	101103	35120
84.2	23341ca4e4830bee	56416	1001331	8320	32224	31376	0	101107	35120
84.2	23341ca4e4830bee	56416	1001522	8320	32224	31376	0	101115	35120
84.2	23341ca4e4830bee	56432	1001713	8320	32192	31376	0	101127	35056
84.2	23341ca4e4830bee	56432	1001904	8320	32192	31376	0	101113	35056
84.2	23341ca4e4830bee	56432	1002085	8320	32192	31376	0	101121	35056
84.2	23341ca4e4830bee	56432	1002277	8320	32192	31376	0	101121	35056
84.2	23341ca4e4830bee	56464	1002468	8320	32256	31376	0	101121	35040
84.2	23341ca4e4830bee	56464	1002659	8320	32256	31376	0	101109	35040
84.2	23341ca4e4830bee	56464	1002850	8320	32256	31376	0	101113	35040
84.2	23341ca4e4830bee	56640	1003042	8320	32256	31376	0	101117	35152
84.2	23341ca4e4830bee	56640	1003233	8320	32288	31344	0	101115	35152
84.2	23341ca4e4830bee	56640	1003424	8320	32288	31344	0	101113	35152
84.2	23341ca4e4830bee	56640	1003668	8320	32288	31344	0	101113	35152
84.2	23341ca4e4830bee	56896	1003859	8320	32208	31408	1	101121	35344
84.2	23341ca4e4830bee	56896	1004050	8320	32208	31408	0	101117	35344
84.02	23341ca4e4830bee	56896	1004241	8320	32208	31408	1	101109	35344
84.2	23341ca4e4830bee	56896	1004432	8320	32208	31408	1	101113	35344
84.2	23341ca4e4830bee	57872	1004624	8320	32256	31360	1	101115	35072
84.2	23341ca4e4830bee	57872	1004805	8320	32256	31360	0	101113	35072
84.2	23341ca4e4830bee	57872	1004996	8320	32256	31360	1	101113	35072
84.2	23341ca4e4830bee	57872	1005187	8320	32256	31360	0	101115	35072
84.2	23341ca4e4830bee	56512	1005378	8320	32224	31408	1	101107	35136
84.2	23341ca4e4830bee	56512	1005569	8320	32224	31408	0	101121	35136
84.2	23341ca4e4830bee	56512	1005760	8320	32224	31408	0	101113	35136
84.2	23341ca4e4830bee	56512	1005951	8320	32224	31408	0	101115	35344
84.2	23341ca4e4830bee	56512	1006142	8320	32240	31392	0	101109	35344
84.2	23341ca4e4830bee	56512	1006334	8320	32240	31392	0	101113	35344
84.2	23341ca4e4830bee	56512	1006515	8320	32240	31392	0	101113	35344
84.2	23341ca4e4830bee	56464	1006706	8320	32208	31392	0	101117	35120
84.2	23341ca4e4830bee	56464	1006897	8320	32208	31392	0	101117	35120
84.2	23341ca4e4830bee	56464	1007088	8320	32208	31392	0	101111	35120
84.2	23341ca4e4830bee	56464	1007282	8320	32208	31392	0	101119	35120
84.2	23341ca4e4830bee	56496	1007502	8320	32240	31392	0	101113	35360
84.02	23341ca4e4830bee	56496	1007693	8320	32240	31392	0	101107	35360
84.02	23341ca4e4830bee	56496	1007884	8320	32240	31392	0	101109	35360
84.2	23341ca4e4830bee	56496	1008065	8320	32240	31392	0	101111	35360
84.02	23341ca4e4830bee	56480	1008256	8320	32256	31408	0	101109	34976
84.02	23341ca4e4830bee	56480	1008447	8320	32256	31408	0	101113	34976
84.02	23341ca4e4830bee	56480	1008639	8320	32256	31408	0	101115	34976
84.02	23341ca4e4830bee	56464	1008830	8320	32256	31408	0	101109	35104
84.02	23341ca4e4830bee	56464	1009021	8320	32208	31408	0	101113	35104
84.02	23341ca4e4830bee	56464	1009212	8320	32208	31408	0	101119	35104
84.02	23341ca4e4830bee	56464	1009403	8320	32208	31408	0	101107	35104
84.02	23341ca4e4830bee	56480	1009594	8320	32256	31392	0	101119	34976
84.02	23341ca4e4830bee	56480	1009775	8320	32256	31392	0	101119	34976
84.02	23341ca4e4830bee	56480	1009966	8320	32256	31392	0	101113	34976
84.02	23341ca4e4830bee	56480	1010158	8320	32256	31392	0	101101	34976
84.02	23341ca4e4830bee	56496	1010349	8320	32208	31440	0	101101	35344
84.2	23341ca4e4830bee	56496	1010540	8320	32208	31440	0	101117	35344
84.02	23341ca4e4830bee	56496	1010731	8320	32208	31440	0	101113	35344
84.02	23341ca4e4830bee	56496	1010922	8320	32208	31440	0	101119	35344
84.02	23341ca4e4830bee	56480	1011114	8320	32256	31392	0	101107	35024
84.02	23341ca4e4830bee	56480	1011338	8320	32256	31392	0	101113	35024
84.02	23341ca4e4830bee	56480	1011530	8320	32256	31392	0	101113	35024
84.02	23341ca4e4830bee	56496	1011724	8320	32256	31392	0	101113	35056
84.02	23341ca4e4830bee	56496	1011915	8320	32288	31408	0	101113	35056
84.02	23341ca4e4830bee	56496	1012096	8320	32288	31408	0	101109	35056
84.2	23341ca4e4830bee	56496	1012296	8320	32288	31408	0	101107	35056
84.2	23341ca4e4830bee	56480	1012487	8320	32240	31376	0	101105	35344
84.2	23341ca4e4830bee	56480	1012678	8320	32240	31376	0	101113	35344
84.2	23341ca4e4830bee	56480	1012869	8320	32240	31376	0	101115	35344
84.2	23341ca4e4830bee	56480	1013060	8320	32240	31376	0	101093	35344
84.2	23341ca4e4830bee	56496	1013251	8320	32256	31408	0	101117	35072
84.2	23341ca4e4830bee	56496	1013442	8320	32256	31408	0	101115	35072
84.2	23341ca4e4830bee	56496	1013633	8320	32256	31408	0	101121	35072
84.2	23341ca4e4830bee	56496	1013825	8320	32256	31408	0	101115	35072
84.2	23341ca4e4830bee	56496	1014006	8320	32224	31376	0	101109	34992
84.2	23341ca4e4830bee	56496	1014197	8320	32224	31376	0	101109	34992
84.2	23341ca4e4830bee	56496	1014388	8320	32224	31376	0	101109	34992
84.2	23341ca4e4830bee	56496	1014579	8320	32224	31376	0	101115	34992
84.2	23341ca4e4830bee	56480	1014770	8320	32240	31424	0	101113	35264
84.2	23341ca4e4830bee	56480	1014962	8320	32240	31424	0	101113	35264
84.2	23341ca4e4830bee	56480	1015202	8320	32240	31424	0	101109	35264
84.2	23341ca4e4830bee	56512	1015393	8320	32272	31376	0	101109	35088
84.2	23341ca4e4830bee	56512	1015585	8320	32272	31376	0	101105	35088
84.2	23341ca4e4830bee	56512	1015776	8320	32272	31376	0	101113	35088
84.2	23341ca4e4830bee	56512	1015967	8320	32272	31376	0	101115	35088
84.2	23341ca4e4830bee	56512	1016158	8320	32224	31408	0	101109	35264
84.2	23341ca4e4830bee	56512	1016349	8320	32224	31408	0	101115	35264
84.2	23341ca4e4830bee	56512	1016540	8320	32224	31408	0	101113	35264
84.2	23341ca4e4830bee	56512	1016731	8320	32224	31408	0	101113	35264
84.2	23341ca4e4830bee	56496	1016922	8320	32224	31360	0	101109	35088
84.2	23341ca4e4830bee	56496	1017113	8320	32224	31360	0	101113	35088
84.2	23341ca4e4830bee	56496	1017304	8320	32224	31360	0	101117	35088
84.2	23341ca4e4830bee	56512	1017495	8320	32224	31360	0	101113	35232
84.2	23341ca4e4830bee	56512	1017677	8320	32240	31392	0	101121	35232
84.2	23341ca4e4830bee	56512	1017868	8320	32240	31392	0	101113	35232
84.2	23341ca4e4830bee	56512	1018059	8320	32240	31392	0	101115	35232
84.2	23341ca4e4830bee	56512	1018250	8320	32240	31360	0	101113	35072
84.2	23341ca4e4830bee	56512	1018441	8320	32240	31360	0	101121	35072
84.2	23341ca4e4830bee	56512	1018633	8320	32240	31360	0	101121	35072
84.2	23341ca4e4830bee	56512	1018824	8320	32240	31360	0	101105	35072
84.2	23341ca4e4830bee	56512	1019055	8320	32224	31424	0	101111	35312
84.2	23341ca4e4830bee	56512	1019236	8320	32224	31424	0	101113	35312
84.2	23341ca4e4830bee	56512	1019427	8320	32224	31424	0	101105	35312
84.2	23341ca4e4830bee	56512	1019618	8320	32224	31424	0	101121	35312
84.2	23341ca4e4830bee	56512	1019809	8320	32256	31392	0	101109	35312
84.2	23341ca4e4830bee	56512	1020001	8320	32256	31392	0	101107	35312
84.2	23341ca4e4830bee	56512	1020192	8320	32256	31392	0	101117	35312
84.2	23341ca4e4830bee	56512	1020383	8320	32256	31392	0	101115	35040
84.2	23341ca4e4830bee	56512	1020574	8320	32240	31424	0	101113	35040
84.2	23341ca4e4830bee	56512	1020765	8320	32240	31424	0	101109	35040
84.2	23341ca4e4830bee	56512	1020956	8320	32240	31424	0	101121	35040
84.2	23341ca4e4830bee	56512	1021147	8320	32256	31392	0	101113	35056
84.2	23341ca4e4830bee	56512	1021343	8320	32256	31392	0	101105	35056
84.2	23341ca4e4830bee	56512	1021534	8320	32256	31392	0	101109	35056
84.2	23341ca4e4830bee	56512	1021725	8320	32256	31392	0	101115	35056
84.2	23341ca4e4830bee	56528	1021907	8320	32240	31376	0	101115	35296
84.2	23341ca4e4830bee	56528	1022098	8320	32240	31376	0	101113	35296
84.2	23341ca4e4830bee	56528	1022289	8320	32240	31376	0	101121	35296
84.2	23341ca4e4830bee	56528	1022480	8320	32240	31376	0	101109	35296
84.2	23341ca4e4830bee	56528	1022671	8448	32224	31392	0	101111	35344
84.2	23341ca4e4830bee	56528	1022901	8448	32224	31392	0	101119	35344
84.2	23341ca4e4830bee	56528	1023092	8448	32224	31392	0	101115	35344
84.2	23341ca4e4830bee	56528	1023284	8320	32224	31392	0	101111	35072
84.02	23341ca4e4830bee	56528	1023475	8320	32240	31392	0	101119	35072
84.02	23341ca4e4830bee	56528	1023666	8320	32240	31392	0	101113	35072
84.02	23341ca4e4830bee	56528	1023847	8320	32240	31392	0	101109	35072
84.2	23341ca4e4830bee	56528	1024038	8320	32224	31376	0	101117	35296
84.02	23341ca4e4830bee	56528	1024229	8320	32224	31376	0	101115	35296
84.2	23341ca4e4830bee	56528	1024420	8320	32224	31376	0	101113	35296
84.02	23341ca4e4830bee	56528	1024612	8320	32224	31376	0	101103	35296
84.02	23341ca4e4830bee	56528	1024803	8320	32240	31392	0	101109	35152
84.02	23341ca4e4830bee	56528	1024994	8320	32240	31392	0	101109	35152
84.02	23341ca4e4830bee	56528	1025185	8320	32240	31392	0	101113	35152
84.02	23341ca4e4830bee	56528	1025376	8320	32240	31392	0	101113	35152
84.02	23341ca4e4830bee	56544	1025557	8320	32192	31424	0	101109	35088
84.02	23341ca4e4830bee	56544	1025748	8320	32192	31424	0	101109	35088
84.02	23341ca4e4830bee	56544	1025940	8320	32192	31424	0	101111	35088
84.02	23341ca4e4830bee	56544	1026131	8320	32192	31424	0	101109	35088
84.02	23341ca4e4830bee	56544	1026322	8320	32288	31376	0	101109	35360
84.02	23341ca4e4830bee	56544	1026513	8320	32288	31376	0	101109	35360
84.02	23341ca4e4830bee	56544	1026744	8320	32288	31376	0	101117	35360
84.02	23341ca4e4830bee	56544	1026935	8320	32240	31408	0	101111	35072
84.02	23341ca4e4830bee	56544	1027126	8320	32240	31408	0	101111	35072
84.02	23341ca4e4830bee	56544	1027317	8320	32240	31408	0	101111	35072
84.02	23341ca4e4830bee	56544	1027508	8320	32240	31408	0	101115	35072
84.02	23341ca4e4830bee	56560	1027699	8320	32224	31392	0	101117	35104
84.02	23341ca4e4830bee	56560	1027897	8320	32224	31392	0	101115	35104
84.02	23341ca4e4830bee	56560	1028088	8320	32224	31392	0	101119	35104
84.02	23341ca4e4830bee	56560	1028280	8320	32224	31392	0	101115	35104
84.02	23341ca4e4830bee	56544	1028471	8320	32208	31408	0	101111	35072
84.02	23341ca4e4830bee	56544	1028668	8320	32208	31408	0	101111	35072
84.02	23341ca4e4830bee	56544	1028859	8320	32208	31408	0	101115	35072
84.02	23341ca4e4830bee	56544	1029050	8320	32208	31408	0	101109	34976
84.02	23341ca4e4830bee	56544	1029241	8320	32240	31392	0	101115	34976
84.02	23341ca4e4830bee	56544	1029435	8320	32240	31392	0	101111	34976
84.02	23341ca4e4830bee	56544	1029626	8320	32240	31392	0	101111	34976
84.02	23341ca4e4830bee	56560	1029808	8320	32208	31376	0	101127	34976
84.02	23341ca4e4830bee	56560	1029999	8320	32208	31376	0	101117	34976
84.02	23341ca4e4830bee	56560	1030190	8320	32208	31376	0	101115	34976
84.02	23341ca4e4830bee	56560	1030381	8320	32208	31376	0	101115	34976
84.02	23341ca4e4830bee	56560	1030627	8320	32256	31408	0	101113	35376
84.02	23341ca4e4830bee	56560	1030808	8320	32256	31408	0	101113	35376
84.02	23341ca4e4830bee	56560	1030999	8320	32256	31408	0	101107	35376
84.02	23341ca4e4830bee	56560	1031191	8320	32256	31408	0	101117	35376
84.02	23341ca4e4830bee	56560	1031382	8320	32224	31408	0	101107	35152
84.02	23341ca4e4830bee	56560	1031573	8320	32224	31408	0	101109	35152
84.02	23341ca4e4830bee	56560	1031764	8320	32224	31408	0	101115	35152
84.02	23341ca4e4830bee	56560	1031955	8320	32224	31408	0	101113	35088
84.02	23341ca4e4830bee	56560	1032146	8320	32208	31392	0	101117	35088
84.02	23341ca4e4830bee	56560	1032337	8320	32208	31392	0	101111	35088
84.02	23341ca4e4830bee	56560	1032518	8320	32208	31392	0	101113	35088
83.84	23341ca4e4830bee	56560	1032709	8320	32256	31392	0	101109	35264
83.84	23341ca4e4830bee	56560	1032900	8320	32256	31392	0	101107	35264
83.84	23341ca4e4830bee	56560	1033092	8320	32256	31392	0	101111	35264
83.84	23341ca4e4830bee	56560	1033283	8320	32256	31392	0	101111	35264
83.84	23341ca4e4830bee	56576	1033475	8320	32240	31408	0	101109	35200
83.84	23341ca4e4830bee	56576	1033666	8320	32240	31408	0	101107	35200
83.84	23341ca4e4830bee	56576	1033857	8320	32240	31408	0	101111	35200
83.84	23341ca4e4830bee	56576	1034038	8320	32240	31408	0	101113	35200
83.84	23341ca4e4830bee	56576	1034230	8320	32208	31392	0	101103	34992
83.84	23341ca4e4830bee	56576	1034483	8320	32208	31392	0	101109	34992
83.84	23341ca4e4830bee	56576	1034674	8320	32208	31392	0	101119	34992
83.84	23341ca4e4830bee	56576	1034866	8320	32256	31392	0	101115	35344
83.84	23341ca4e4830bee	56576	1035057	8320	32256	31392	0	101115	35344
83.84	23341ca4e4830bee	56576	1035268	8320	32256	31392	0	101115	35344
83.84	23341ca4e4830bee	56576	1035449	8320	32256	31392	0	101101	35344
83.84	23341ca4e4830bee	56576	1035640	8320	32192	31424	0	101111	35184
83.84	23341ca4e4830bee	56576	1035831	8320	32192	31424	0	101107	35184
83.84	23341ca4e4830bee	56576	1036025	8320	32192	31424	0	101113	35184
83.84	23341ca4e4830bee	56576	1036216	8320	32192	31424	0	101115	35184
83.84	23341ca4e4830bee	56576	1036407	8320	32224	31344	0	101115	34960
83.84	23341ca4e4830bee	56576	1036598	8320	32224	31344	0	101113	34960
83.84	23341ca4e4830bee	56576	1036779	8320	32224	31344	0	101113	34960
83.84	23341ca4e4830bee	56576	1036970	8448	32224	31344	0	101113	34960
83.84	23341ca4e4830bee	56576	1037161	8448	32224	31392	0	101109	35216
83.84	23341ca4e4830bee	56576	1037353	8448	32224	31392	0	101119	35216
83.84	23341ca4e4830bee	56576	1037544	8448	32224	31392	0	101115	35216
83.84	23341ca4e4830bee	56592	1037735	8320	32224	31392	0	101109	35216
83.66	23341ca4e4830bee	56592	1037926	8320	32224	31376	0	101111	35216
83.84	23341ca4e4830bee	56592	1038118	8320	32224	31376	0	101115	35216
83.66	23341ca4e4830bee	56592	1038351	8320	32224	31376	0	101117	35216
83.66	23341ca4e4830bee	56592	1038542	8320	32256	31376	0	101111	35072
83.66	23341ca4e4830bee	56592	1038733	8320	32256	31376	0	101119	35072
83.66	23341ca4e4830bee	56592	1038924	8320	32256	31376	0	101109	35072
83.66	23341ca4e4830bee	56592	1039115	8320	32256	31376	0	101109	35072
83.66	23341ca4e4830bee	56592	1039306	8320	32256	31392	0	101113	35136
83.66	23341ca4e4830bee	56592	1039497	8320	32256	31392	0	101107	35136
83.66	23341ca4e4830bee	56592	1039688	8320	32256	31392	0	101109	35136
83.66	23341ca4e4830bee	56592	1039870	8448	32256	31392	0	101113	34976
83.66	23341ca4e4830bee	56592	1040061	8448	32224	31392	0	101115	34976
83.66	23341ca4e4830bee	56592	1040252	8448	32224	31392	0	101115	34976
83.66	23341ca4e4830bee	56592	1040443	8448	32224	31392	0	101113	34976
83.66	23341ca4e4830bee	56592	1040634	8320	32240	31392	0	101113	34912
83.66	23341ca4e4830bee	56592	1040825	8320	32240	31408	0	101121	34912
83.66	23341ca4e4830bee	56592	1041016	8320	32240	31408	0	101117	34912
83.66	23341ca4e4830bee	56592	1041207	8320	32240	31408	0	101107	34912
83.66	23341ca4e4830bee	56592	1041399	8320	32224	31392	0	101115	35184
83.66	23341ca4e4830bee	56592	1041590	8320	32224	31392	0	101109	35184
83.66	23341ca4e4830bee	56592	1041782	8320	32224	31392	0	101109	35184
83.66	23341ca4e4830bee	56592	1041973	8320	32224	31392	0	101111	35184
83.66	23341ca4e4830bee	56592	1042214	8320	32256	31408	0	101105	35120
83.66	23341ca4e4830bee	56592	1042405	8320	32256	31408	0	101111	35120
83.66	23341ca4e4830bee	56592	1042596	8320	32256	31408	0	101115	35120
83.66	23341ca4e4830bee	56592	1042788	8320	32256	31408	0	101105	35008
83.66	23341ca4e4830bee	56592	1042979	8320	32224	31344	0	101117	35008
83.66	23341ca4e4830bee	56592	1043160	8320	32224	31344	0	101115	35008
83.66	23341ca4e4830bee	56592	1043351	8320	32224	31344	0	101117	35008
83.66	23341ca4e4830bee	56608	1043542	8320	32256	31408	0	101113	35008
83.66	23341ca4e4830bee	56608	1043733	8320	32256	31408	0	101117	35008
83.66	23341ca4e4830bee	56608	1043924	8320	32256	31408	0	101113	35008
83.66	23341ca4e4830bee	56608	1044115	8320	32256	31408	0	101107	35008
83.66	23341ca4e4830bee	56608	1044316	8320	32240	31392	0	101109	35344
83.66	23341ca4e4830bee	56608	1044507	8320	32240	31392	0	101119	35344
83.66	23341ca4e4830bee	56608	1044698	8320	32240	31392	0	101117	35344
83.66	23341ca4e4830bee	56608	1044889	8320	32240	31392	0	101117	35344
83.66	23341ca4e4830bee	56608	1045070	8320	32240	31376	0	101117	35264
83.66	23341ca4e4830bee	56608	1045261	8320	32240	31376	0	101109	35264
83.66	23341ca4e4830bee	56608	1045453	8320	32240	31376	0	101115	35264
83.66	23341ca4e4830bee	56608	1045644	8320	32240	31376	0	101121	35264
83.66	23341ca4e4830bee	56608	1045835	8320	32208	31392	0	101117	35040
83.66	23341ca4e4830bee	56608	1046077	8320	32208	31392	0	101109	35040
83.66	23341ca4e4830bee	56608	1046268	8320	32208	31392	0	101115	35040
83.66	23341ca4e4830bee	56608	1046459	8320	32224	31376	0	101115	35056
83.66	23341ca4e4830bee	56608	1046640	8320	32224	31376	0	101113	35056
83.66	23341ca4e4830bee	56608	1046831	8320	32224	31376	0	101109	35056
83.66	23341ca4e4830bee	56608	1047022	8320	32224	31376	0	101115	35056
83.66	23341ca4e4830bee	56608	1047213	8448	32224	31408	0	101109	35232
83.66	23341ca4e4830bee	56608	1047404	8448	32224	31408	0	101109	35232
83.66	23341ca4e4830bee	56608	1047596	8448	32224	31408	0	101109	35232
83.66	23341ca4e4830bee	56608	1047787	8320	32224	31408	0	101103	35232
83.66	23341ca4e4830bee	56608	1047978	8320	32272	31424	0	101113	35232
83.66	23341ca4e4830bee	56608	1048169	8320	32272	31424	0	101107	35232
83.66	23341ca4e4830bee	56608	1048350	8320	32272	31424	0	101113	35232
83.66	23341ca4e4830bee	56608	1048542	8320	32272	31424	0	101103	34960
83.66	23341ca4e4830bee	56608	1048733	8320	32240	31440	0	101109	34960
83.66	23341ca4e4830bee	56608	1048924	8320	32240	31440	0	101119	34960
83.66	23341ca4e4830bee	56608	1049115	8320	32240	31440	0	101109	34960
83.66	23341ca4e4830bee	56608	1049307	8448	32224	31440	0	101113	35296
83.66	23341ca4e4830bee	56608	1049498	8448	32224	31360	0	101107	35296
83.66	23341ca4e4830bee	56608	1049689	8448	32224	31360	0	101113	35296
83.66	23341ca4e4830bee	56608	1049920	8448	32224	31360	0	101105	35296
83.66	23341ca4e4830bee	56608	1050101	8320	32208	31392	0	101115	35216
83.66	23341ca4e4830bee	56608	1050312	8320	32208	31392	0	101101	35216
83.66	23341ca4e4830bee	56608	1050503	8320	32208	31392	0	101109	35216
83.66	23341ca4e4830bee	56608	1050694	8320	32208	31392	0	101107	35216
83.66	23341ca4e4830bee	56608	1050885	8320	32240	31424	0	101107	35328
83.66	23341ca4e4830bee	56608	1051076	8320	32240	31424	0	101115	35328
83.66	23341ca4e4830bee	56608	1051267	8320	32240	31424	0	101111	35328
83.66	23341ca4e4830bee	56624	1051458	8320	32240	31424	0	101113	35264
83.66	23341ca4e4830bee	56624	1051649	8320	32240	31408	0	101113	35264
83.66	23341ca4e4830bee	56624	1051831	8320	32240	31408	0	101117	35264
83.66	23341ca4e4830bee	56624	1052022	8320	32240	31408	0	101099	35264
83.66	23341ca4e4830bee	56608	1052213	8320	32224	31392	0	101111	35040
83.66	23341ca4e4830bee	56608	1052404	8320	32224	31392	0	101111	35040
83.66	23341ca4e4830bee	56608	1052595	8320	32224	31392	0	101109	35040
83.66	23341ca4e4830bee	56608	1052787	8320	32224	31392	0	101111	35040
83.66	23341ca4e4830bee	56624	1052978	8320	32224	31376	0	101111	34960
83.66	23341ca4e4830bee	56624	1053169	8320	32224	31376	0	101111	34960
83.66	23341ca4e4830bee	56624	1053360	8320	32224	31376	0	101107	34960
83.66	23341ca4e4830bee	56624	1053552	8320	32224	31376	0	101105	34960
83.66	23341ca4e4830bee	56624	1053792	8320	32208	31408	0	101111	35072
83.66	23341ca4e4830bee	56624	1053983	8320	32208	31408	0	101117	35072
83.66	23341ca4e4830bee	56624	1054174	8320	32208	31408	0	101117	35072
83.66	23341ca4e4830bee	56624	1054365	8320	32208	31376	0	101111	35328
83.66	23341ca4e4830bee	56624	1054556	8320	32208	31376	0	101107	35328
83.66	23341ca4e4830bee	56624	1054747	8320	32208	31376	0	101109	35328
83.66	23341ca4e4830bee	56624	1054938	8320	32208	31376	0	101113	35328
83.66	23341ca4e4830bee	56624	1055129	8320	32224	31392	0	101107	35360
83.66	23341ca4e4830bee	56624	1055321	8320	32224	31392	0	101113	35360
83.66	23341ca4e4830bee	56624	1055502	8320	32224	31392	0	101103	35360
83.66	23341ca4e4830bee	56624	1055693	8320	32224	31392	0	101115	35360
83.66	23341ca4e4830bee	56624	1055884	8320	32240	31376	0	101113	35328
83.66	23341ca4e4830bee	56624	1056075	8320	32240	31376	0	101113	35328
83.66	23341ca4e4830bee	56624	1056266	8320	32240	31376	0	101113	35328
83.66	23341ca4e4830bee	56624	1056457	8320	32240	31376	0	101113	35328
83.66	23341ca4e4830bee	56624	1056648	8320	32240	31424	0	101113	35328
83.66	23341ca4e4830bee	56624	1056840	8320	32240	31424	0	101121	35328
83.66	23341ca4e4830bee	56624	1057031	8320	32240	31424	0	101121	35328
83.66	23341ca4e4830bee	56624	1057222	8448	32240	31424	0	101113	35328
83.66	23341ca4e4830bee	56624	1057413	8448	32224	31408	0	101107	35328
83.66	23341ca4e4830bee	56624	1057654	8448	32224	31408	0	101115	35328
83.66	23341ca4e4830bee	56624	1057845	8448	32224	31408	0	101109	35328
83.66	23341ca4e4830bee	56624	1058037	8320	32224	31360	0	101107	35312
83.66	23341ca4e4830bee	56624	1058228	8320	32224	31360	0	101107	35312
83.66	23341ca4e4830bee	56624	1058419	8320	32224	31360	0	101107	35312
83.66	23341ca4e4830bee	56624	1058610	8320	32224	31360	0	101123	35312
83.66	23341ca4e4830bee	56640	1058801	8320	32256	31392	0	101109	35056
83.66	23341ca4e4830bee	56640	1058982	8320	32256	31392	0	101121	35056
83.66	23341ca4e4830bee	56640	1059173	8320	32256	31392	0	101115	35056
83.66	23341ca4e4830bee	56640	1059364	8320	32256	31392	0	101115	35056
83.66	23341ca4e4830bee	56624	1059555	8320	32240	31360	0	101111	34944
83.66	23341ca4e4830bee	56624	1059746	8320	32240	31360	0	101117	34944
83.66	23341ca4e4830bee	56624	1059938	8320	32240	31360	0	101103	34944
83.66	23341ca4e4830bee	56624	1060129	8320	32192	31360	0	101109	34976
83.66	23341ca4e4830bee	56624	1060320	8320	32192	31376	0	101107	34976
83.66	23341ca4e4830bee	56624	1060511	8320	32192	31376	0	101115	34976
83.66	23341ca4e4830bee	56624	1060702	8320	32192	31376	0	101115	34976
83.66	23341ca4e4830bee	56640	1060893	8320	32256	31376	0	101111	34960
83.66	23341ca4e4830bee	56640	1061085	8320	32256	31376	0	101115	34960
83.48	23341ca4e4830bee	56640	1061276	8320	32256	31376	0	101107	34960
83.48	23341ca4e4830bee	56640	1061509	8448	32256	31376	0	101113	34960
83.48	23341ca4e4830bee	56624	1061700	8448	32224	31408	0	101115	35280
83.48	23341ca4e4830bee	56624	1061891	8448	32224	31408	0	101111	35280
83.48	23341ca4e4830bee	56624	1062072	8448	32224	31408	0	101121	35280
83.48	23341ca4e4830bee	56624	1062263	8320	32224	31408	0	101107	35200
83.48	23341ca4e4830bee	56640	1062454	8320	32272	31392	0	101109	35200
83.48	23341ca4e4830bee	56640	1062645	8320	32272	31392	0	101107	35200
83.48	23341ca4e4830bee	56640	1062836	8320	32272	31392	0	101107	35200
83.48	23341ca4e4830bee	56640	1063027	8448	32256	31392	0	101111	35168
83.48	23341ca4e4830bee	56640	1063218	8448	32256	31392	0	101109	35168
83.48	23341ca4e4830bee	56640	1063409	8448	32256	31392	0	101105	35168
83.48	23341ca4e4830bee	56640	1063600	8448	32256	31392	0	101113	35168
83.48	23341ca4e4830bee	56640	1063792	8320	32240	31376	0	101109	35088
83.48	23341ca4e4830bee	56640	1063983	8320	32240	31376	0	101119	35088
83.48	23341ca4e4830bee	56640	1064174	8320	32240	31376	0	101111	35088
83.48	23341ca4e4830bee	56640	1064365	8320	32240	31376	0	101117	35088
83.48	23341ca4e4830bee	56640	1064557	8320	32240	31376	0	101109	35200
83.48	23341ca4e4830bee	56640	1064748	8320	32240	31376	0	101103	35200
83.48	23341ca4e4830bee	56640	1064939	8320	32240	31376	0	101117	35200
83.48	23341ca4e4830bee	56640	1065130	8320	32240	31376	0	101103	35200
83.48	23341ca4e4830bee	56640	1065367	8320	32208	31392	0	101105	35088
83.48	23341ca4e4830bee	56640	1065558	8320	32208	31392	0	101115	35088
83.48	23341ca4e4830bee	56640	1065749	8320	32208	31392	0	101101	35088
83.48	23341ca4e4830bee	56640	1065940	8320	32256	31360	0	101109	35056
83.48	23341ca4e4830bee	56640	1066131	8320	32256	31360	0	101117	35056
83.48	23341ca4e4830bee	56640	1066312	8320	32256	31360	0	101109	35056
83.48	23341ca4e4830bee	56640	1066503	8320	32256	31360	0	101103	35056
83.48	23341ca4e4830bee	56640	1066694	8320	32224	31424	0	101109	35104
83.48	23341ca4e4830bee	56640	1066886	8320	32224	31424	0	101113	35104
83.48	23341ca4e4830bee	56640	1067077	8320	32224	31424	0	101103	35104
83.48	23341ca4e4830bee	56640	1067268	8320	32224	31424	0	101109	35104
83.48	23341ca4e4830bee	56640	1067459	8320	32224	31440	0	101113	34944
83.48	23341ca4e4830bee	56640	1067650	8320	32224	31440	0	101119	34944
83.48	23341ca4e4830bee	56640	1067841	8320	32224	31440	0	101109	34944
83.48	23341ca4e4830bee	56640	1068022	8320	32224	31440	0	101095	34944
83.48	23341ca4e4830bee	56640	1068213	8320	32224	31408	0	101113	35040
83.48	23341ca4e4830bee	56640	1068419	8320	32224	31408	0	101107	35040
83.48	23341ca4e4830bee	56640	1068610	8320	32224	31408	0	101105	35040
83.48	23341ca4e4830bee	56640	1068801	8320	32224	31408	0	101105	35184
83.48	23341ca4e4830bee	56640	1068982	8320	32224	31408	0	101109	35184
83.48	23341ca4e4830bee	56640	1069224	8320	32224	31408	0	101103	35184
83.48	23341ca4e4830bee	56640	1069415	8320	32224	31408	0	101119	35184
83.48	23341ca4e4830bee	56640	1069606	8320	32208	31408	0	101113	34992
83.48	23341ca4e4830bee	56640	1069797	8320	32208	31408	0	101115	34992
83.48	23341ca4e4830bee	56640	1069988	8320	32208	31408	0	101105	34992
83.48	23341ca4e4830bee	56640	1070179	8320	32208	31408	0	101113	34992
83.48	23341ca4e4830bee	56656	1070370	8320	32240	31392	0	101109	35072
83.48	23341ca4e4830bee	56656	1070561	8320	32240	31392	0	101115	35072
83.48	23341ca4e4830bee	56656	1070752	8320	32240	31392	0	101109	35072
83.48	23341ca4e4830bee	56640	1070944	8320	32240	31392	0	101113	35088
83.48	23341ca4e4830bee	56640	1071135	8320	32272	31392	0	101109	35088
83.48	23341ca4e4830bee	56640	1071331	8320	32272	31392	0	101119	35088
83.48	23341ca4e4830bee	56640	1071522	8320	32272	31392	0	101105	35088
83.48	23341ca4e4830bee	56640	1071703	8448	32224	31376	0	101111	35008
83.48	23341ca4e4830bee	56640	1071895	8448	32224	31376	0	101117	35008
83.48	23341ca4e4830bee	56640	1072086	8448	32224	31376	0	101109	35008
83.48	23341ca4e4830bee	56640	1072277	8448	32224	31376	0	101107	35008
83.48	23341ca4e4830bee	56656	1072468	8320	32240	31360	0	101109	35232
83.48	23341ca4e4830bee	56656	1072659	8320	32240	31360	0	101113	35232
83.48	23341ca4e4830bee	56656	1072851	8320	32240	31360	0	101107	35232
83.48	23341ca4e4830bee	56656	1073083	8320	32240	31360	0	101109	35232
83.48	23341ca4e4830bee	56640	1073264	8320	32240	31376	0	101105	35216
83.48	23341ca4e4830bee	56640	1073455	8320	32240	31376	0	101105	35216
83.48	23341ca4e4830bee	56640	1073646	8320	32240	31376	0	101101	35216
83.48	23341ca4e4830bee	56656	1073837	8320	32240	31376	0	101109	35120
83.48	23341ca4e4830bee	56656	1074028	8320	32224	31392	0	101109	35120
83.48	23341ca4e4830bee	56656	1074219	8320	32224	31392	0	101111	35120
83.48	23341ca4e4830bee	56656	1074410	8320	32224	31392	0	101109	35120
83.48	23341ca4e4830bee	56656	1074601	8448	32240	31408	0	101117	35120
83.48	23341ca4e4830bee	56656	1074793	8448	32240	31408	0	101105	35120
83.48	23341ca4e4830bee	56656	1074984	8448	32240	31408	0	101109	35120
83.48	23341ca4e4830bee	56656	1075175	8448	32240	31408	0	101113	35120
83.48	23341ca4e4830bee	56656	1075366	8320	32224	31392	0	101109	35008
83.48	23341ca4e4830bee	56656	1075557	8320	32224	31392	0	101109	35008
83.48	23341ca4e4830bee	56656	1075749	8320	32224	31392	0	101105	35008
83.48	23341ca4e4830bee	56656	1075940	8320	32224	31392	0	101115	35008
83.48	23341ca4e4830bee	56656	1076131	8320	32240	31392	0	101111	35312
83.48	23341ca4e4830bee	56656	1076325	8320	32240	31392	0	101115	35312
83.48	23341ca4e4830bee	56656	1076517	8320	32240	31392	0	101099	35312
83.48	23341ca4e4830bee	56656	1076708	8320	32240	31392	0	101109	34992